rosbagTimestamp,header,seq,stamp,secs,nsecs,frame_id,ax,ay,az,gx,gy,gz,depth
1404240462752262134,,9813,,1404240418,892514944,'',-15980,-32,-1364,-8,-259,-411,10073
1404240462752294978,,9814,,1404240418,916810035,'',-16164,-48,-1468,-25,-267,-423,10063
1404240462819427181,,9815,,1404240418,942672967,'',-15996,88,-1312,-25,-266,-385,10073
1404240462819448122,,9816,,1404240418,965946912,'',-16024,32,-1248,-33,-275,-419,10073
1404240462931291053,,9817,,1404240418,988343000,'',-16040,40,-1288,-4,-250,-406,10079
1404240462931307673,,9818,,1404240419,13176918,'',-16084,60,-1232,-36,-260,-389,10068
1404240462931316307,,9819,,1404240419,37120103,'',-16100,92,-1364,-15,-276,-410,10068
1404240463027454450,,9820,,1404240419,60015916,'',-16116,8,-1348,-3,-259,-416,10063
1404240463027478878,,9821,,1404240419,83447933,'',-15996,-48,-1324,-25,-267,-407,10063
1404240463079814437,,9822,,1404240419,106734991,'',-15976,-32,-1448,-18,-281,-419,10073
1404240463079839126,,9823,,1404240419,131983995,'',-16012,-40,-1324,-9,-245,-413,10068
1404240463079851588,,9824,,1404240419,155721902,'',-16036,8,-1308,-18,-244,-403,10073
1404240463124813601,,9825,,1404240419,178520917,'',-16092,84,-1292,-3,-276,-413,10068
1404240463124849455,,9826,,1404240419,201395988,'',-16072,92,-1400,-10,-273,-406,10079
1404240463177684154,,9827,,1404240419,226325988,'',-16084,32,-1140,-19,-258,-417,10068
1404240463177711520,,9828,,1404240419,250462055,'',-16080,-24,-1348,-22,-248,-414,10068
1404240463177726002,,9829,,1404240419,274843931,'',-16172,-48,-1400,-6,-275,-408,10068
1404240463230528901,,9830,,1404240419,297056913,'',-16104,-48,-1260,8,-265,-415,10073
1404240463230551715,,9831,,1404240419,321028947,'',-16000,16,-1504,-28,-260,-388,10068
1404240463277221990,,9832,,1404240419,346689939,'',-16060,-20,-1424,-18,-246,-414,10068
1404240463277244789,,9833,,1404240419,369369029,'',-16168,48,-1396,-18,-263,-403,10063
1404240463326041374,,9834,,1404240419,392658948,'',-15992,84,-1384,-7,-270,-434,10073
1404240463326075546,,9835,,1404240419,416023969,'',-16124,60,-1480,-7,-265,-424,10073
1404240463326087532,,9836,,1404240419,439594984,'',-16060,28,-1236,-8,-262,-404,10073
1404240463553271624,,9837,,1404240419,462802886,'',-16048,56,-1364,4,-254,-422,10073
1404240463553290052,,9838,,1404240419,486219882,'',-16088,-16,-1372,-28,-259,-427,10073
1404240463553300525,,9839,,1404240419,509664058,'',-16148,16,-1428,-6,-263,-398,10073
1404240463553310700,,9840,,1404240419,533715009,'',-16028,-28,-1384,-6,-267,-407,10073
1404240463553320818,,9841,,1404240419,557470083,'',-16100,28,-1336,-12,-276,-398,10073
1404240463553330892,,9842,,1404240419,579812049,'',-16064,40,-1452,10,-245,-408,10068
1404240463553340915,,9843,,1404240419,603049993,'',-16068,96,-1336,-7,-241,-398,10068
1404240463582530117,,9844,,1404240419,627126932,'',-16076,12,-1344,11,-272,-410,10068
1404240463582559355,,9845,,1404240419,652158975,'',-15980,-24,-1388,-13,-291,-423,10068
1404240463633169351,,9846,,1404240419,675420999,'',-16108,28,-1624,-23,-245,-427,10073
1404240463633186837,,9847,,1404240419,698918104,'',-16128,-20,-1380,-12,-255,-431,10073
1404240463683198280,,9848,,1404240419,722841024,'',-16144,92,-1324,-30,-277,-421,10073
1404240463683219959,,9849,,1404240419,747575998,'',-15980,-32,-1352,-17,-262,-420,10068
1404240463683242068,,9850,,1404240419,772224903,'',-16056,64,-1292,-14,-233,-409,10079
1404240463765494450,,9851,,1404240419,795593976,'',-16084,-44,-1372,-1,-259,-401,10068
1404240463765510550,,9852,,1404240419,819997072,'',-16168,-52,-1400,-18,-249,-406,10073
1404240463820663718,,9853,,1404240419,844149112,'',-16172,68,-1296,-3,-254,-405,10068
1404240463820680866,,9854,,1404240419,866988897,'',-16064,44,-1384,-17,-270,-389,10063
1404240463895370954,,9855,,1404240419,890820026,'',-16016,-4,-1120,-29,-268,-430,10073
1404240463895391838,,9856,,1404240419,913806915,'',-16164,12,-1236,-2,-261,-408,10079
1404240463895403581,,9857,,1404240419,939714908,'',-16172,-56,-1292,-16,-272,-422,10068
1404240463990953921,,9858,,1404240419,961992025,'',-16100,12,-1396,7,-246,-407,10073
1404240463990974439,,9859,,1404240419,984936952,'',-16060,84,-1384,-21,-301,-409,10073
1404240464042325214,,9860,,1404240420,7951974,'',-16020,92,-1192,-37,-246,-411,10063
1404240464042571760,,9861,,1404240420,32075881,'',-16048,8,-1200,-31,-255,-412,10073
1404240464095856401,,9862,,1404240420,56739091,'',-16076,56,-1296,-11,-256,-425,10073
1404240464096769300,,9863,,1404240420,79615116,'',-16080,52,-1316,-28,-269,-417,10068
1404240464097377133,,9864,,1404240420,102571964,'',-16124,-60,-1352,-9,-262,-415,10068
1404240464144186379,,9865,,1404240420,125262975,'',-16056,80,-1420,1,-265,-419,10073
1404240464144479969,,9866,,1404240420,150279998,'',-16084,36,-1376,-24,-229,-404,10073
1404240464271907353,,9867,,1404240420,173810958,'',-16100,-28,-1560,-30,-275,-389,10068
1404240464272026034,,9868,,1404240420,195751905,'',-15964,0,-1416,1,-256,-428,10068
1404240464274481889,,9869,,1404240420,221024036,'',-16076,124,-1380,-34,-276,-418,10073
1404240464274512083,,9870,,1404240420,246680021,'',-16092,-64,-1476,-14,-260,-412,10068
1404240464320490634,,9871,,1404240420,271747112,'',-16052,32,-1320,-9,-276,-406,10068
1404240464320510474,,9872,,1404240420,294831037,'',-16052,32,-1464,-6,-271,-421,10073
1404240464370827911,,9873,,1404240420,319288015,'',-16068,124,-1292,-8,-282,-412,10073
1404240464371102144,,9874,,1404240420,343663930,'',-16064,32,-1156,-18,-268,-426,10073
1404240464420300933,,9875,,1404240420,367295026,'',-16124,16,-1320,-31,-267,-412,10068
1404240464420707505,,9876,,1404240420,390425920,'',-16020,24,-1248,-49,-251,-410,10063
1404240464468069690,,9877,,1404240420,414078950,'',-16220,-24,-1332,-25,-264,-395,10073
1404240464468228143,,9878,,1404240420,438874006,'',-16124,-4,-1348,-15,-272,-413,10063
1404240464468428433,,9879,,1404240420,462956905,'',-15960,-52,-1432,-17,-259,-408,10068
1404240464518912844,,9880,,1404240420,485797882,'',-16192,32,-1312,-6,-251,-408,10057
1404240464519268768,,9881,,1404240420,508863925,'',-15956,108,-1248,-14,-281,-399,10079
1404240464605860033,,9882,,1404240420,531426906,'',-16096,64,-1416,0,-238,-380,10068
1404240464606137316,,9883,,1404240420,556087017,'',-16136,24,-1184,-5,-238,-408,10068
1404240464650923183,,9884,,1404240420,578419923,'',-16000,16,-1392,-3,-294,-403,10073
1404240464651227140,,9885,,1404240420,602066993,'',-16088,-48,-1288,-18,-281,-409,10068
1404240464651493478,,9886,,1404240420,625479936,'',-16132,20,-1424,-35,-253,-427,10073
1404240464699349840,,9887,,1404240420,650932073,'',-16016,-20,-1288,-15,-244,-439,10063
1404240464699766994,,9888,,1404240420,674315929,'',-16132,-84,-1360,-25,-268,-423,10068
1404240464744539438,,9889,,1404240420,698523044,'',-16036,24,-1324,-33,-285,-405,10068
1404240464744912476,,9890,,1404240420,722229957,'',-16076,32,-1248,-12,-281,-415,10063
1404240464793888183,,9891,,1404240420,747725009,'',-16068,-20,-1400,-16,-251,-412,10068
1404240464794125062,,9892,,1404240420,772730112,'',-15992,-40,-1364,-15,-284,-399,10079
1404240464841638447,,9893,,1404240420,796068906,'',-16056,-24,-1244,-3,-248,-432,10068
1404240464841768318,,9894,,1404240420,819107055,'',-16096,-52,-1488,-8,-288,-415,10068
1404240464841999484,,9895,,1404240420,844039916,'',-15988,72,-1292,-19,-272,-407,10073
1404240465019580572,,9896,,1404240420,867863893,'',-16092,56,-1236,-30,-293,-258,10068
1404240465019606806,,9897,,1404240420,890824079,'',-16024,72,-1328,-13,-280,-400,10062
1404240465020037141,,9898,,1404240420,913646936,'',-15960,0,-1324,11,-271,-421,10068
1404240465020172037,,9899,,1404240420,936527013,'',-16068,8,-1228,-35,-267,-417,10079
1404240465020433314,,9900,,1404240420,961492061,'',-15968,-88,-1352,-13,-265,-425,10079
1404240465048670624,,9901,,1404240420,984258890,'',-16004,60,-1280,-32,-256,-410,10068
1404240465048692855,,9902,,1404240421,7726907,'',-16088,-32,-1408,-15,-272,-401,10068
1404240465098647059,,9903,,1404240421,32038927,'',-15920,-60,-1208,-11,-252,-395,10068
1404240465098669463,,9904,,1404240421,55223941,'',-16112,44,-1432,1,-277,-415,10068
1404240465144719614,,9905,,1404240421,78881978,'',-16084,32,-1452,-19,-277,-398,10063
1404240465144742564,,9906,,1404240421,102730989,'',-16016,-24,-1292,-29,-269,-412,10068
1404240465144755275,,9907,,1404240421,125577926,'',-16004,72,-1348,2,-255,-415,10068
1404240465199988541,,9908,,1404240421,151532888,'',-15916,108,-1232,-25,-258,-443,10073
1404240465200003342,,9909,,1404240421,174401044,'',-15992,16,-1236,20,-264,-420,10079
1404240465255275549,,9910,,1404240421,198280096,'',-16152,-36,-1352,-30,-278,-404,10068
1404240465255647691,,9911,,1404240421,221831083,'',-15976,28,-1352,-4,-257,-417,10073
1404240465304651725,,9912,,1404240421,246628046,'',-16164,40,-1328,6,-286,-411,10063
1404240465304850259,,9913,,1404240421,269805908,'',-16028,0,-1292,1,-244,-413,10073
1404240465305164171,,9914,,1404240421,293113946,'',-15988,-28,-1368,6,-242,-404,10073
1404240465390474866,,9915,,1404240421,316354990,'',-16128,160,-1372,-3,-251,-428,10068
1404240465390703005,,9916,,1404240421,339114904,'',-16144,52,-1388,-1,-263,-403,10068
1404240465431373062,,9917,,1404240421,364161014,'',-16040,32,-1380,-25,-254,-414,10068
1404240465431757039,,9918,,1404240421,386864900,'',-16100,-8,-1408,4,-287,-418,10063
1404240465521222373,,9919,,1404240421,410427093,'',-15980,104,-1392,-19,-276,-397,10068
1404240465521245619,,9920,,1404240421,433984994,'',-16036,-44,-1440,-25,-282,-419,10068
1404240465521474937,,9921,,1404240421,457971096,'',-16100,40,-1344,-9,-283,-401,10068
1404240465567373888,,9922,,1404240421,480659961,'',-16140,52,-1312,-4,-268,-417,10073
1404240465567618960,,9923,,1404240421,503150939,'',-15972,-28,-1264,2,-257,-405,10063
1404240465567906224,,9924,,1404240421,527023077,'',-16048,76,-1212,-25,-254,-427,10068
1404240465617303281,,9925,,1404240421,551896095,'',-16044,20,-1392,-26,-273,-399,10068
1404240465617604085,,9926,,1404240421,575203895,'',-16120,20,-1364,-10,-263,-413,10073
1404240465659294121,,9927,,1404240421,597740888,'',-16036,32,-1168,6,-277,-404,10068
1404240465659518447,,9928,,1404240421,620641946,'',-16072,28,-1316,-6,-273,-410,10068
1404240465707561612,,9929,,1404240421,646698951,'',-16036,-24,-1280,-8,-271,-403,10073
1404240465707825560,,9930,,1404240421,669002056,'',-16184,76,-1384,1,-254,-400,10073
1404240465755210001,,9931,,1404240421,692158937,'',-16064,64,-1316,-4,-266,-413,10073
1404240465755360438,,9932,,1404240421,715398073,'',-16124,-56,-1384,-12,-257,-407,10068
1404240465755553743,,9933,,1404240421,739552021,'',-16200,76,-1292,-13,-259,-381,10068
1404240465798925150,,9934,,1404240421,762746095,'',-16076,60,-1460,-21,-262,-412,10079
1404240465799356029,,9935,,1404240421,785177946,'',-16036,84,-1432,0,-272,-426,10073
1404240465862328760,,9936,,1404240421,808871030,'',-16044,92,-1452,-19,-262,-415,10079
1404240465862585372,,9937,,1404240421,832125902,'',-16084,76,-1272,-34,-267,-397,10068
1404240465908326299,,9938,,1404240421,857621908,'',-16136,-28,-1308,-2,-268,-407,10063
1404240465908622378,,9939,,1404240421,880527973,'',-16012,68,-1400,-15,-252,-396,10068
1404240465959420856,,9940,,1404240421,903919935,'',-16068,68,-1252,-31,-279,-403,10068
1404240465960098503,,9941,,1404240421,927643060,'',-16108,16,-1244,-19,-251,-423,10073
1404240465960333195,,9942,,1404240421,952054977,'',-16120,84,-1360,8,-267,-397,10068
1404240465993961062,,9943,,1404240421,975394964,'',-16012,-20,-1260,-2,-278,-416,10073
1404240466043554548,,9944,,1404240421,999696969,'',-15874,-258,-258,-258,-258,-258,10068
1404240466043842725,,9945,,1404240422,22856950,'',-16040,88,-1316,16,-265,-400,10068
1404240466044147444,,9946,,1404240422,45840024,'',-16108,0,-1408,0,-270,-420,10068
1404240466174740590,,9947,,1404240422,70040941,'',-16168,-4,-1456,-19,-261,-410,10073
1404240466175172710,,9948,,1404240422,92816114,'',-16108,-8,-1232,-7,-269,-409,10073
1404240466246076558,,9949,,1404240422,115490913,'',-16048,28,-1528,-3,-260,-413,10068
1404240466246226051,,9950,,1404240422,139211893,'',-16000,36,-1352,-18,-255,-402,10073
1404240466246417533,,9951,,1404240422,163865089,'',-16060,-116,-1332,-3,-281,-405,10068
1404240466278793828,,9952,,1404240422,186690092,'',-16020,4,-1440,-6,-278,-424,10068
1404240466279294812,,9953,,1404240422,209939002,'',-16024,32,-1616,10,-263,-423,10068
1404240466325637650,,9954,,1404240422,233006000,'',-16120,-44,-1360,-7,-293,-397,10063
1404240466325890469,,9955,,1404240422,258681058,'',-16052,60,-1296,-21,-281,-408,10063
1404240466372483813,,9956,,1404240422,283719062,'',-16104,-48,-1268,-15,-263,-413,10073
1404240466372712855,,9957,,1404240422,307074069,'',-16156,-24,-1328,-12,-268,-405,10068
1404240466419261889,,9958,,1404240422,331531047,'',-15996,-52,-1316,-40,-269,-407,10079
1404240466419484900,,9959,,1404240422,356661081,'',-16076,36,-1376,-45,-273,-403,10068
1404240466469064280,,9960,,1404240422,380429029,'',-16140,-4,-1264,-12,-263,-401,10073
1404240466469261248,,9961,,1404240422,403213977,'',-16096,76,-1292,-12,-269,-409,10068
1404240466469479924,,9962,,1404240422,425493955,'',-16112,4,-1324,25,-258,-395,10079
1404240466599299446,,9963,,1404240422,449295997,'',-16052,92,-1444,9,-290,-420,10073
1404240466599319422,,9964,,1404240422,472800016,'',-16104,4,-1436,10,-282,-405,10063
1404240466607478816,,9965,,1404240422,496689081,'',-16108,44,-1404,-20,-287,-422,10068
1404240466607505611,,9966,,1404240422,519989967,'',-16092,4,-1364,-14,-244,-403,10068
1404240466607517160,,9967,,1404240422,543327093,'',-16148,-12,-1248,-14,-255,-416,10062
1404240466654728805,,9968,,1404240422,567507982,'',-16104,20,-1368,-1,-258,-389,10079
1404240466654757808,,9969,,1404240422,591025114,'',-15916,-28,-1296,-27,-247,-406,10068
1404240466701340487,,9970,,1404240422,613872051,'',-16048,32,-1232,-39,-270,-418,10068
1404240466701362777,,9971,,1404240422,637411117,'',-16080,-12,-1372,-28,-268,-407,10063
1404240466748661107,,9972,,1404240422,662872076,'',-16020,-24,-1048,-2,-270,-407,10068
1404240466748905309,,9973,,1404240422,685548067,'',-16004,-16,-1236,-9,-263,-418,10073
1404240466797530633,,9974,,1404240422,709378004,'',-16092,120,-1304,-14,-248,-418,10073
1404240466797896895,,9975,,1404240422,732964038,'',-15940,-56,-1312,-1,-275,-409,10073
1404240466844103609,,9976,,1404240422,757946014,'',-16144,-32,-1264,-31,-279,-420,10074
1404240466844283427,,9977,,1404240422,782792091,'',-16144,56,-1368,-8,-258,-427,10063
1404240466844462948,,9978,,1404240422,805480003,'',-16148,28,-1276,-4,-261,-412,10063
1404240466895374836,,9979,,1404240422,829550027,'',-16056,-28,-1384,-28,-267,-396,10073
1404240466895805389,,9980,,1404240422,852919101,'',-16012,32,-1320,-19,-268,-407,10063
1404240466943916656,,9981,,1404240422,876640081,'',-16004,-36,-1488,-14,-270,-389,10063
1404240466945291837,,9982,,1404240422,899518013,'',-16116,28,-1304,-8,-242,-432,10068
1404240466990849613,,9983,,1404240422,921839952,'',-16104,52,-1344,0,-259,-395,10068
1404240466991090904,,9984,,1404240422,945384979,'',-16044,56,-1276,-19,-261,-384,10073
1404240466991294864,,9985,,1404240422,969610929,'',-15988,52,-1316,-4,-278,-402,10068
1404240467036028772,,9986,,1404240422,992722988,'',-16108,36,-1352,-15,-266,-411,10073
1404240467038212911,,9987,,1404240423,15115976,'',-16076,8,-1452,-18,-278,-423,10073
1404240467092761549,,9988,,1404240423,38897991,'',-16048,28,-1288,-23,-277,-374,10068
1404240467093082915,,9989,,1404240423,64198017,'',-16028,88,-1340,-4,-279,-402,10063
1404240467132952218,,9990,,1404240423,86736917,'',-16100,20,-1388,2,-264,-405,10068
1404240467133234917,,9991,,1404240423,111100912,'',-16072,-40,-1584,-13,-283,-417,10068
1404240467170887194,,9992,,1404240423,134970903,'',-15976,72,-1388,-29,-284,-410,10068
1404240467171206051,,9993,,1404240423,158459901,'',-16192,-16,-1336,-3,-268,-417,10068
1404240467210848442,,9994,,1404240423,183355093,'',-16044,0,-1308,-27,-259,-406,10068
1404240467211268642,,9995,,1404240423,206629991,'',-16096,36,-1352,11,-246,-416,10068
1404240467258773782,,9996,,1404240423,230082988,'',-16080,104,-1388,-11,-245,-424,10068
1404240467258910027,,9997,,1404240423,255129098,'',-16072,-20,-1348,-19,-281,-423,10068
1404240467259152572,,9998,,1404240423,279130935,'',-15992,0,-1388,-14,-247,-412,10073
1404240467306164019,,9999,,1404240423,302958011,'',-16076,100,-1392,-6,-261,-391,10068
1404240467306419579,,10000,,1404240423,326438903,'',-16012,-40,-1348,10,-272,-382,10073
1404240467354414249,,10001,,1404240423,349863052,'',-16040,56,-1432,-12,-253,-416,10073
1404240467354714006,,10002,,1404240423,373285055,'',-16008,28,-1452,5,-252,-407,10057
1404240467420556700,,10003,,1404240423,396555900,'',-15948,52,-1388,-1,-260,-409,10068
1404240467420899468,,10004,,1404240423,419280052,'',-16128,16,-1352,-1,-283,-400,10073
1404240467491383475,,10005,,1404240423,444144010,'',-16052,-40,-1276,-5,-259,-416,10073
1404240467491651866,,10006,,1404240423,468883037,'',-16068,116,-1424,-8,-276,-414,10068
1404240467491928367,,10007,,1404240423,492429971,'',-16036,64,-1404,-20,-283,-414,10073
1404240467537161799,,10008,,1404240423,514493942,'',-16064,12,-1340,0,-275,-412,10068
1404240467538204282,,10009,,1404240423,538041114,'',-16100,24,-1340,-31,-281,-396,10068
1404240467585749972,,10010,,1404240423,561738967,'',-16028,72,-1276,-7,-253,-396,10068
1404240467586143475,,10011,,1404240423,586817979,'',-16020,140,-1372,-12,-277,-432,10073
1404240467630160635,,10012,,1404240423,611788988,'',-16184,16,-1288,-31,-290,-413,10068
1404240467630423375,,10013,,1404240423,643631935,'',-16104,80,-1304,-26,-244,-411,10079
1404240467678528971,,10014,,1404240423,668471097,'',-16096,20,-1344,-4,-241,-403,10063
1404240467678852182,,10015,,1404240423,691091060,'',-16020,8,-1340,-31,-251,-401,10073
1404240467726487699,,10016,,1404240423,715344905,'',-16020,-76,-1268,-32,-262,-406,10068
1404240467726787681,,10017,,1404240423,739449977,'',-16160,4,-1404,-13,-234,-409,10073
1404240467776055220,,10018,,1404240423,763041019,'',-15992,-28,-1420,-7,-239,-427,10073
1404240467776227788,,10019,,1404240423,788271903,'',-15964,8,-1220,0,-283,-393,10073
1404240467776417317,,10020,,1404240423,810281038,'',-16116,8,-1340,8,-257,-415,10068
1404240467828661544,,10021,,1404240423,834217071,'',-16060,-32,-1412,-15,-259,-398,10068
1404240467828967264,,10022,,1404240423,856936931,'',-16032,92,-1468,0,-250,-424,10068
1404240467874906951,,10023,,1404240423,880635023,'',-16028,48,-1260,9,-252,-396,10068
1404240467877109474,,10024,,1404240423,903753995,'',-16036,44,-1364,-6,-276,-405,10073
1404240467922549081,,10025,,1404240423,927632093,'',-16096,-16,-1400,-30,-246,-412,10074
1404240467922785317,,10026,,1404240423,952786922,'',-16116,-108,-1216,-17,-266,-407,10068
1404240467970779145,,10027,,1404240423,976881027,'',-16048,-8,-1260,-27,-254,-399,10073
1404240467970912173,,10028,,1404240424,1276969,'',-16084,-16,-1208,-26,-246,-419,10063
1404240467971136217,,10029,,1404240424,25074005,'',-16052,12,-1376,-11,-276,-394,10068
1404240468023540433,,10030,,1404240424,48609972,'',-16080,-12,-1368,0,-288,-408,10063
1404240468024102137,,10031,,1404240424,73067903,'',-16136,84,-1484,-9,-238,-392,10073
1404240468066286543,,10032,,1404240424,96225976,'',-16060,-48,-1480,6,-242,-425,10068
1404240468066555269,,10033,,1404240424,121092081,'',-16028,60,-1312,-5,-256,-408,10068
1404240468119141833,,10034,,1404240424,146025896,'',-15964,32,-1212,9,-269,-395,10068
1404240468121211561,,10035,,1404240424,169600009,'',-16032,-60,-1332,-14,-259,-428,10062
1404240468180046618,,10036,,1404240424,194947004,'',-16096,44,-1264,-18,-270,-403,10068
1404240468180180107,,10037,,1404240424,218168973,'',-15996,8,-1404,-18,-231,-397,10068
1404240468180368391,,10038,,1404240424,241206884,'',-16036,0,-1420,-1,-260,-406,10068
1404240468227331760,,10039,,1404240424,264926910,'',-16100,44,-1356,-19,-271,-414,10073
1404240468227728508,,10040,,1404240424,288666963,'',-16016,20,-1380,-8,-269,-398,10063
1404240468276683084,,10041,,1404240424,312644004,'',-16028,-8,-1384,-28,-244,-404,10068
1404240468276920816,,10042,,1404240424,336411952,'',-16044,68,-1376,-18,-283,-394,10068
1404240468315332261,,10043,,1404240424,359817028,'',-16068,0,-1432,-23,-248,-385,10068
1404240468315686570,,10044,,1404240424,384274005,'',-16088,48,-1352,-25,-267,-415,10068
1404240468363809151,,10045,,1404240424,407217979,'',-16012,16,-1276,-9,-252,-406,10057
1404240468364181545,,10046,,1404240424,431097030,'',-16008,156,-1276,-6,-261,-395,10068
1404240468409463988,,10047,,1404240424,455055952,'',-16056,56,-1220,-17,-259,-414,10073
1404240468409703002,,10048,,1404240424,479228973,'',-16056,-4,-1408,-4,-254,-427,10068
1404240468487249195,,10049,,1404240424,503350973,'',-16092,-32,-1292,-13,-295,-396,10074
1404240468488418506,,10050,,1404240424,526715040,'',-16112,-4,-1492,10,-278,-418,10068
1404240468490770432,,10051,,1404240424,550966024,'',-16096,116,-1504,-15,-263,-421,10073
1404240468535255169,,10052,,1404240424,573543071,'',-16052,44,-1348,-9,-281,-422,10073
1404240468535502350,,10053,,1404240424,598958015,'',-16060,60,-1472,-13,-285,-406,10079
1404240468582258074,,10054,,1404240424,621884107,'',-15972,24,-1296,-37,-270,-393,10063
1404240468583094946,,10055,,1404240424,646713018,'',-16088,-80,-1456,-21,-266,-419,10068
1404240468628538448,,10056,,1404240424,669568061,'',-16144,32,-1384,0,-283,-404,10063
1404240468628786731,,10057,,1404240424,692163944,'',-16032,28,-1544,-7,-256,-391,10073
1404240468675622526,,10058,,1404240424,716357946,'',-16040,-4,-1468,-18,-268,-413,10068
1404240468676002295,,10059,,1404240424,738986968,'',-16052,4,-1456,-1,-257,-400,10068
1404240468676395953,,10060,,1404240424,762892007,'',-16000,-60,-1312,-28,-259,-390,10073
1404240468722579423,,10061,,1404240424,788964033,'',-15976,-32,-1432,-23,-255,-408,10079
1404240468722951931,,10062,,1404240424,812725067,'',-16036,20,-1300,-25,-257,-406,10079
1404240468792703383,,10063,,1404240424,836669921,'',-16020,132,-1324,-22,-269,-410,10073
1404240468792966737,,10064,,1404240424,860210895,'',-16168,28,-1308,-20,-239,-422,10073
1404240468841645017,,10065,,1404240424,884728908,'',-16096,-12,-1200,2,-264,-418,10073
1404240468841898030,,10066,,1404240424,907640933,'',-16152,72,-1308,-23,-272,-392,10068
1404240468887879627,,10067,,1404240424,930668115,'',-16080,92,-1364,3,-256,-430,10063
1404240468888243814,,10068,,1404240424,954310894,'',-16212,40,-1360,-10,-259,-395,10068
1404240468935586990,,10069,,1404240424,977916002,'',-16068,12,-1424,-19,-250,-423,10068
1404240468936103557,,10070,,1404240425,2655982,'',-15972,52,-1352,5,-240,-414,10068
1404240468936507176,,10071,,1404240425,25407075,'',-16076,72,-1324,18,-251,-409,10068
1404240469000061494,,10072,,1404240425,50630092,'',-16136,-68,-1428,-41,-271,-431,10079
1404240469000324394,,10073,,1404240425,73199987,'',-15988,24,-1432,-1,-264,-392,10073
1404240469049950750,,10074,,1404240425,97276926,'',-16068,128,-1392,-26,-283,-415,10073
1404240469050280239,,10075,,1404240425,120702981,'',-16084,60,-1496,-7,-296,-401,10068
1404240469093421705,,10076,,1404240425,145612955,'',-16004,76,-1248,-26,-265,-410,10073
1404240469093718303,,10077,,1404240425,169203996,'',-16112,0,-1400,-258,-258,-258,10073
1404240469137108672,,10078,,1404240425,194289922,'',-16120,-32,-1200,-26,-286,-404,10063
1404240469137359456,,10079,,1404240425,217983007,'',-16028,16,-1444,-25,-241,-385,10073
1404240469137650280,,10080,,1404240425,240461111,'',-16076,28,-1440,-6,-259,-410,10068
1404240469187381322,,10081,,1404240425,264502048,'',-16072,92,-1160,-14,-260,-413,10068
1404240469187736633,,10082,,1404240425,290138006,'',-16112,8,-1340,-24,-279,-399,10068
1404240469235237022,,10083,,1404240425,313569068,'',-16152,100,-1248,-8,-276,-406,10068
1404240469235515376,,10084,,1404240425,336189985,'',-16008,72,-1412,2,-251,-412,10073
1404240469328008378,,10085,,1404240425,360150098,'',-15980,32,-1284,-16,-263,-408,10063
1404240469329221488,,10086,,1404240425,382110118,'',-16088,-8,-1428,6,-252,-412,10063
1404240469330294156,,10087,,1404240425,406316995,'',-16020,0,-1488,-5,-260,-414,10063
1404240469377923628,,10088,,1404240425,429369926,'',-16104,36,-1328,2,-267,-396,10079
1404240469378186310,,10089,,1404240425,453176021,'',-16144,56,-1316,-34,-260,-381,10063
1404240469426821552,,10090,,1404240425,476073026,'',-16008,92,-1360,-8,-269,-418,10073
1404240469427441374,,10091,,1404240425,499649047,'',-16032,32,-1268,-17,-267,-384,10073
1404240469472787608,,10092,,1404240425,522416114,'',-16048,-52,-1332,-2,-258,-407,10073
1404240469472946748,,10093,,1404240425,547954082,'',-16080,-40,-1424,-6,-275,-426,10068
1404240469473154785,,10094,,1404240425,570472955,'',-16000,-4,-1256,12,-274,-396,10079
1404240469546630487,,10095,,1404240425,593507051,'',-16112,8,-1308,6,-277,-427,10073
1404240469546920646,,10096,,1404240425,616669893,'',-16016,36,-1316,-33,-264,-420,10063
1404240469600187383,,10097,,1404240425,640132904,'',-16172,64,-1392,-7,-272,-439,10073
1404240469600455772,,10098,,1404240425,663867950,'',-15900,124,-1272,-3,-282,-390,10073
1404240469687251815,,10099,,1404240425,686042070,'',-15980,0,-1408,3,-254,-421,10073
1404240469687503840,,10100,,1404240425,711281061,'',-16116,32,-1216,-14,-254,-432,10068
1404240469735269237,,10101,,1404240425,735744953,'',-16080,120,-1284,-22,-256,-422,10068
1404240469735451784,,10102,,1404240425,759618997,'',-15996,-76,-1348,-16,-277,-408,10073
1404240469735712043,,10103,,1404240425,783716917,'',-16056,-40,-1312,22,-279,-402,10068
1404240469783276060,,10104,,1404240425,807385921,'',-15936,4,-1388,-15,-265,-397,10068
1404240469783536552,,10105,,1404240425,830594062,'',-16092,-24,-1268,21,-291,-406,10073
1404240469831463985,,10106,,1404240425,855057954,'',-16036,72,-1424,-37,-243,-408,10079
1404240469831745572,,10107,,1404240425,878247976,'',-16084,-36,-1364,-12,-266,-414,10068
1404240469832050355,,10108,,1404240425,902353048,'',-16104,-36,-1380,-5,-263,-412,10073
1404240469869682367,,10109,,1404240425,925457000,'',-16004,8,-1356,-19,-300,-431,10073
1404240469918634564,,10110,,1404240425,950239896,'',-16116,16,-1432,-8,-270,-401,10073
1404240469918776525,,10111,,1404240425,972948074,'',-16028,-24,-1292,-4,-264,-386,10079
1404240469919094625,,10112,,1404240425,997294902,'',-16000,24,-1300,-12,-288,-427,10068
1404240469957925166,,10113,,1404240426,19992113,'',-16116,12,-1296,-18,-280,-403,10073
1404240469958645800,,10114,,1404240426,43392896,'',-16016,-40,-1296,-15,-238,-404,10073
1404240470044608615,,10115,,1404240426,68428039,'',-16072,-24,-1280,-42,-264,-397,10073
1404240470044841669,,10116,,1404240426,93014001,'',-16124,32,-1428,-24,-262,-402,10068
1404240470099426958,,10117,,1404240426,116255998,'',-16092,-12,-1364,-9,-276,-400,10073
1404240470099821241,,10118,,1404240426,139679908,'',-16004,12,-1372,-30,-252,-389,10068
1404240470145056864,,10119,,1404240426,164223909,'',-16020,-60,-1356,-31,-267,-394,10068
1404240470145214907,,10120,,1404240426,186769962,'',-16072,88,-1496,-1,-254,-407,10073
1404240470145419532,,10121,,1404240426,208827018,'',-16048,8,-1280,1,-281,-418,10068
1404240470189116018,,10122,,1404240426,232600927,'',-16112,-72,-1284,-9,-278,-403,10063
1404240470189495826,,10123,,1404240426,256438016,'',-16104,24,-1396,-22,-267,-402,10068
1404240470240007411,,10124,,1404240426,281565904,'',-16132,-76,-1312,-12,-245,-413,10074
1404240470240289612,,10125,,1404240426,306308031,'',-16148,44,-1396,-20,-268,-412,10063
1404240470287451193,,10126,,1404240426,328536987,'',-16068,0,-1328,2,-257,-435,10068
1404240470287848981,,10127,,1404240426,352245092,'',-16092,56,-1220,4,-269,-410,10068
1404240470335485914,,10128,,1404240426,375283002,'',-16084,-12,-1300,-13,-268,-416,10073
1404240470335684077,,10129,,1404240426,400039911,'',-16048,4,-1416,-6,-256,-412,10073
1404240470335902565,,10130,,1404240426,422159910,'',-16064,16,-1308,1,-229,-396,10073
1404240470387363617,,10131,,1404240426,445616006,'',-16056,-52,-1296,-26,-273,-392,10068
1404240470387716619,,10132,,1404240426,470001935,'',-16032,104,-1276,-27,-258,-415,10068
1404240470432770261,,10133,,1404240426,493143081,'',-16100,-12,-1256,-6,-264,-407,10068
1404240470433028057,,10134,,1404240426,518102884,'',-15916,-32,-1252,12,-270,-407,10073
1404240470479276282,,10135,,1404240426,542097091,'',-16180,28,-1364,-18,-263,-416,10073
1404240470479769989,,10136,,1404240426,564831018,'',-15996,44,-1384,-5,-275,-417,10073
1404240470528203965,,10137,,1404240426,587251901,'',-16012,40,-1236,-3,-265,-397,10068
1404240470528379122,,10138,,1404240426,611372947,'',-16032,16,-1396,-19,-249,-417,10068
1404240470528618444,,10139,,1404240426,634732007,'',-16184,-20,-1252,12,-250,-420,10084
1404240470573130796,,10140,,1404240426,658946990,'',-15996,-28,-1212,0,-286,-408,10063
1404240470573578671,,10141,,1404240426,681267023,'',-16104,32,-1484,22,-281,-406,10073
1404240470618893360,,10142,,1404240426,706415891,'',-16116,510,-258,-258,-258,-258,10068
1404240470619230689,,10143,,1404240426,729691028,'',-16004,-84,-1244,-11,-242,-420,10068
1404240470676866886,,10144,,1404240426,754165887,'',-16172,4,-1436,-7,-264,-418,10068
1404240470677126722,,10145,,1404240426,776679992,'',-16036,-12,-1368,3,-261,-419,10074
1404240470793575744,,10146,,1404240426,801819086,'',-16184,-64,-1464,2,-253,-426,10068
1404240470793596705,,10147,,1404240426,825277090,'',-16044,8,-1396,-10,-276,-420,10073
1404240470793608188,,10148,,1404240426,848892927,'',-16068,16,-1380,-19,-282,-409,10073
1404240470841878333,,10149,,1404240426,873061895,'',-16108,-4,-1296,-13,-252,-406,10068
1404240470841899623,,10150,,1404240426,895102977,'',-16108,40,-1332,9,-277,-416,10068
1404240470841910748,,10151,,1404240426,918638944,'',-16044,-64,-1380,-17,-262,-409,10063
1404240470888797576,,10152,,1404240426,942243099,'',-16004,0,-1264,-13,-254,-408,10073
1404240470888817791,,10153,,1404240426,965406894,'',-16020,36,-1360,-18,-238,-408,10068
1404240471031086447,,10154,,1404240426,988195896,'',-16076,-32,-1380,-9,-237,-410,10063
1404240471031116332,,10155,,1404240427,12253999,'',-16092,120,-1144,-7,-259,-416,10068
1404240471040967468,,10156,,1404240427,36823987,'',-16104,-40,-1432,-31,-260,-433,10073
1404240471040985090,,10157,,1404240427,61427116,'',-16164,52,-1244,-13,-274,-408,10068
1404240471040993370,,10158,,1404240427,84795951,'',-16104,100,-1340,-23,-288,-413,10068
1404240471087262638,,10159,,1404240427,110101938,'',-15936,-24,-1328,-10,-263,-400,10068
1404240471087281118,,10160,,1404240427,133841037,'',-16108,132,-1260,-12,-265,-410,10073
1404240471136556878,,10161,,1404240427,158597946,'',-16056,92,-1368,-19,-282,-397,10063
1404240471136578014,,10162,,1404240427,181106090,'',-16060,88,-1228,-8,-266,-408,10068
1404240471187902802,,10163,,1404240427,205960988,'',-16092,8,-1384,-14,-238,-419,10073
1404240471187929329,,10164,,1404240427,228971004,'',-16092,-32,-1412,-30,-269,-411,10068
1404240471236296399,,10165,,1404240427,253768920,'',-16020,-28,-1244,-9,-258,-418,10068
1404240471236316572,,10166,,1404240427,277837991,'',-16092,-48,-1456,-34,-251,-406,10073
1404240471236327692,,10167,,1404240427,301367044,'',-15980,4,-1244,-13,-265,-388,10068
1404240471283549485,,10168,,1404240427,326678037,'',-16092,68,-1292,-13,-273,-419,10073
1404240471283570840,,10169,,1404240427,349848031,'',-16068,-8,-1264,15,-286,-409,10068
1404240471330166274,,10170,,1404240427,373825073,'',-16036,76,-1388,-14,-260,-416,10073
1404240471330427258,,10171,,1404240427,396163940,'',-16060,-8,-1320,-1,-225,-420,10073
1404240471377734187,,10172,,1404240427,421289920,'',-16096,-24,-1352,-14,-257,-404,10073
1404240471378034057,,10173,,1404240427,444427967,'',-16044,44,-1404,-3,-271,-427,10068
1404240471461265623,,10174,,1404240427,468621969,'',-16076,16,-1256,-15,-291,-396,10073
1404240471461513899,,10175,,1404240427,491482973,'',-16124,48,-1332,-4,-291,-423,10074
1404240471509394172,,10176,,1404240427,515114068,'',-16004,28,-1336,-2,-288,-411,10073
1404240471509542290,,10177,,1404240427,538826942,'',-16044,20,-1372,1,-254,-404,10063
1404240471509752618,,10178,,1404240427,562789916,'',-16140,96,-1372,-31,-270,-405,10068
1404240471559360704,,10179,,1404240427,586265087,'',-16012,-48,-1424,-15,-262,-430,10068
1404240471559669196,,10180,,1404240427,611493110,'',-16032,48,-1376,-32,-283,-413,10068
1404240471606935763,,10181,,1404240427,635731935,'',-16192,-16,-1384,-13,-281,-395,10073
1404240471607314448,,10182,,1404240427,660145998,'',-16140,56,-1308,-17,-250,-421,10079
1404240471654924052,,10183,,1404240427,683393001,'',-15980,16,-1224,-17,-271,-410,10073
1404240471655221541,,10184,,1404240427,705770015,'',-16024,8,-1276,2,-241,-403,10063
1404240471704419721,,10185,,1404240427,728849887,'',-16052,52,-1440,-32,-259,-394,10068
1404240471704644419,,10186,,1404240427,753470897,'',-16104,124,-1260,-30,-259,-391,10068
1404240471704849715,,10187,,1404240427,777153015,'',-16200,44,-1192,-19,-257,-400,10068
1404240471769900242,,10188,,1404240427,800441026,'',-16100,68,-1324,-15,-275,-394,10074
1404240471795904797,,10189,,1404240427,824140071,'',-16036,20,-1396,2,-260,-433,10068
1404240471827546714,,10190,,1404240427,848670959,'',-16004,-36,-1360,-19,-274,-412,10073
1404240471827939563,,10191,,1404240427,870950937,'',-16132,8,-1384,12,-266,-393,10068
1404240471874814745,,10192,,1404240427,894539117,'',-15980,-76,-1324,-23,-250,-400,10063
1404240471876523176,,10193,,1404240427,919142007,'',-16144,-4,-1328,-6,-268,-411,10068
1404240471937195912,,10194,,1404240427,942584991,'',-16076,20,-1328,-28,-274,-414,10068
1404240471937361500,,10195,,1404240427,967474937,'',-16000,104,-1292,-1,-262,-403,10057
1404240471937625150,,10196,,1404240427,989533901,'',-16028,16,-1440,9,-254,-413,10073
1404240471983351619,,10197,,1404240428,14059066,'',-16012,48,-1284,-13,-272,-423,10068
1404240471983781332,,10198,,1404240428,38609027,'',-16076,124,-1156,-18,-285,-424,10068
1404240472029902393,,10199,,1404240428,63448905,'',-16076,-8,-1440,-36,-255,-423,10068
1404240472030121823,,10200,,1404240428,86220979,'',-16048,32,-1516,-16,-272,-420,10073
1404240472076738810,,10201,,1404240428,109796047,'',-16144,-4,-1352,-27,-270,-432,10068
1404240472076874479,,10202,,1404240428,132973909,'',-16076,16,-1348,-28,-295,-412,10074
1404240472077067228,,10203,,1404240428,157906055,'',-15976,-36,-1276,-29,-280,-405,10068
1404240472122055306,,10204,,1404240428,181793928,'',-16076,-84,-1480,-9,-259,-416,10079
1404240472122372651,,10205,,1404240428,205224990,'',-16096,-32,-1524,-10,-262,-411,10068
1404240472171199830,,10206,,1404240428,228593111,'',-15992,60,-1452,21,-261,-407,10068
1404240472171458394,,10207,,1404240428,251795053,'',-16140,76,-1272,6,-245,-422,10068
1404240472244262636,,10208,,1404240428,275167942,'',-16004,24,-1288,-8,-261,-414,10068
1404240472244542643,,10209,,1404240428,299593925,'',-16004,88,-1308,-20,-266,-389,10068
1404240472317546501,,10210,,1404240428,323702096,'',-16120,-4,-1360,1,-278,-435,10068
1404240472317732645,,10211,,1404240428,346760988,'',-16048,32,-1448,-7,-268,-397,10068
1404240472321167270,,10212,,1404240428,370378017,'',-16020,4,-1340,-27,-272,-411,10068
1404240472363849017,,10213,,1404240428,393654108,'',-16088,44,-1184,-22,-270,-416,10068
1404240472364313636,,10214,,1404240428,415870904,'',-16060,8,-1448,-9,-267,-415,10073
1404240472453674282,,10215,,1404240428,441718101,'',-16132,-92,-1400,-24,-259,-432,10068
1404240472453924028,,10216,,1404240428,465792894,'',-16044,20,-1388,-2,-253,-395,10068
1404240472502220747,,10217,,1404240428,488820075,'',-16072,28,-1272,10,-280,-397,10068
1404240472503210774,,10218,,1404240428,511775970,'',-16068,12,-1148,-33,-273,-427,10068
1404240472503845183,,10219,,1404240428,534888982,'',-16036,16,-1452,-12,-289,-393,10068
1404240472550448848,,10220,,1404240428,559057950,'',-16112,24,-1212,6,-274,-419,10073
1404240472550651245,,10221,,1404240428,582381963,'',-16080,40,-1444,-2,-244,-407,10068
1404240472594887430,,10222,,1404240428,605132102,'',-16016,64,-1488,0,-262,-399,10068
1404240472595514465,,10223,,1404240428,629439115,'',-16056,-16,-1280,-5,-278,-433,10073
1404240472644653493,,10224,,1404240428,652854919,'',-16040,40,-1532,-34,-259,-401,10073
1404240472644796161,,10225,,1404240428,676852941,'',-16080,12,-1328,-14,-245,-423,10074
1404240472644998641,,10226,,1404240428,699135065,'',-16104,-8,-1484,12,-263,-415,10068
1404240472693618550,,10227,,1404240428,724632024,'',-15996,-40,-1332,-7,-272,-426,10068
1404240472693972096,,10228,,1404240428,748991966,'',-16084,-64,-1468,-11,-254,-419,10073
1404240472742858312,,10229,,1404240428,773199081,'',-16096,80,-1248,-15,-253,-418,10073
1404240472743235969,,10230,,1404240428,797686100,'',-16052,44,-1376,-23,-250,-402,10073
1404240472788726560,,10231,,1404240428,820899009,'',-15988,28,-1384,-25,-268,-422,10068
1404240472789026080,,10232,,1404240428,846016883,'',-16148,12,-1296,1,-278,-398,10073
1404240472846762385,,10233,,1404240428,870882987,'',-16048,-12,-1376,-12,-265,-391,10073
1404240472847250986,,10234,,1404240428,893479108,'',-16076,72,-1300,8,-271,-414,10068
1404240472847736658,,10235,,1404240428,915379047,'',-16072,24,-1340,4,-257,-394,10068
1404240472893526571,,10236,,1404240428,938941955,'',-15980,48,-1484,-18,-259,-408,10068
1404240472893752614,,10237,,1404240428,963109016,'',-16144,-36,-1372,-9,-268,-412,10063
1404240472965032980,,10238,,1404240428,986752033,'',-15992,-12,-1376,-11,-262,-422,10073
1404240472965270707,,10239,,1404240429,10478973,'',-16076,-12,-1308,-32,-267,-413,10063
1404240473014156865,,10240,,1404240429,35243988,'',-16032,-56,-1308,-29,-251,-394,10068
1404240473014301946,,10241,,1404240429,60873031,'',-15956,-20,-1516,-23,-272,-396,10068
1404240473014508595,,10242,,1404240429,84269046,'',-15984,-72,-1312,-5,-274,-407,10073
1404240473056154788,,10243,,1404240429,108907938,'',-16080,-36,-1328,-39,-270,-414,10068
1404240473056575902,,10244,,1404240429,133500099,'',-16056,100,-1272,-27,-273,-412,10068
1404240473106151914,,10245,,1404240429,156770944,'',-16168,40,-1348,-50,-241,-418,10068
1404240473106607155,,10246,,1404240429,180742979,'',-16020,60,-1272,6,-271,-409,10068
1404240473160300105,,10247,,1404240429,204204082,'',-16012,-8,-1284,-12,-284,-395,10074
1404240473160511599,,10248,,1404240429,229469060,'',-16136,32,-1268,-15,-282,-410,10073
1404240473208223090,,10249,,1404240429,253734111,'',-16012,-36,-1444,-10,-242,-442,10068
1404240473208454050,,10250,,1404240429,276913881,'',-16112,-4,-1400,-10,-264,-418,10068
1404240473256688521,,10251,,1404240429,300422906,'',-16032,40,-1316,-20,-298,-438,10073
1404240473256828064,,10252,,1404240429,324254035,'',-16008,8,-1392,-30,-282,-410,10073
1404240473257022353,,10253,,1404240429,349971055,'',-16140,-16,-1292,-15,-266,-416,10068
1404240473301768851,,10254,,1404240429,374799013,'',-15948,60,-1416,-13,-280,-419,10073
1404240473302362720,,10255,,1404240429,397300958,'',-16056,0,-1172,-10,-248,-403,10073
1404240473347979755,,10256,,1404240429,420052051,'',-16136,24,-1256,-10,-281,-422,10073
1404240473348246687,,10257,,1404240429,443706989,'',-16076,52,-1336,-20,-290,-406,10068
1404240473395968842,,10258,,1404240429,468460083,'',-15968,140,-1492,-33,-262,-409,10068
1404240473396204640,,10259,,1404240429,491776943,'',-16092,-28,-1336,-22,-270,-392,10068
1404240473441612837,,10260,,1404240429,515566110,'',-16008,-32,-1328,-27,-272,-415,10068
1404240473441865830,,10261,,1404240429,540806055,'',-16040,168,-1500,-9,-249,-418,10068
1404240473442137219,,10262,,1404240429,564269065,'',-16092,-12,-1488,3,-262,-421,10068
1404240473491342167,,10263,,1404240429,587804079,'',-15992,60,-1264,-5,-261,-401,10063
1404240473491697702,,10264,,1404240429,611270904,'',-16088,-52,-1524,-17,-255,-398,10063
1404240473539998462,,10265,,1404240429,636538028,'',-16076,-32,-1412,-23,-248,-409,10068
1404240473540297044,,10266,,1404240429,660281896,'',-15988,80,-1336,-10,-294,-405,10068
1404240473620869982,,10267,,1404240429,683145999,'',-16032,32,-1420,1,-284,-415,10068
1404240473621091694,,10268,,1404240429,706110000,'',-16084,-68,-1232,2,-277,-408,10068
1404240473667218094,,10269,,1404240429,729732036,'',-16008,-24,-1312,-12,-275,-402,10068
1404240473667355140,,10270,,1404240429,755461931,'',-16068,-20,-1396,-15,-247,-410,10079
1404240473667547436,,10271,,1404240429,778556108,'',-16092,40,-1324,-8,-259,-399,10063
1404240473716015087,,10272,,1404240429,802990913,'',-16052,32,-1316,-22,-268,-424,10068
1404240473716856919,,10273,,1404240429,826056957,'',-16108,36,-1320,-25,-275,-418,10068
1404240473757685359,,10274,,1404240429,850153923,'',-16040,-32,-1316,-23,-288,-411,10073
1404240473757976215,,10275,,1404240429,874376058,'',-16044,-32,-1384,-3,-291,-411,10068
1404240473801047130,,10276,,1404240429,897630929,'',-16060,48,-1256,-23,-274,-407,10073
1404240473831195278,,10277,,1404240429,920211076,'',-16068,76,-1232,-22,-273,-416,10073
1404240473859553381,,10278,,1404240429,944644927,'',-16096,64,-1396,2,-254,-418,10079
1404240473859580728,,10279,,1404240429,968529939,'',-16120,56,-1352,-4,-265,-406,10068
1404240473905161513,,10280,,1404240429,991058111,'',-16076,52,-1448,-8,-257,-413,10073
1404240473905581418,,10281,,1404240430,14470100,'',-16048,-4,-1304,-9,-290,-409,10074
1404240473905598629,,10282,,1404240430,39385080,'',-15912,-20,-1344,-7,-268,-398,10063
1404240473953198787,,10283,,1404240430,63947916,'',-16024,-40,-1284,11,-275,-420,10073
1404240473953486122,,10284,,1404240430,87760925,'',-16092,-4,-1428,-12,-294,-433,10063
1404240474039372833,,10285,,1404240430,110816955,'',-16036,40,-1356,-3,-285,-401,10068
1404240474039392392,,10286,,1404240430,132929086,'',-16096,0,-1312,10,-272,-399,10074
1404240474080815075,,10287,,1404240430,158082008,'',-16084,8,-1244,10,-242,-382,10073
1404240474080835458,,10288,,1404240430,181492090,'',-16056,40,-1352,4,-276,-411,10068
1404240474128281333,,10289,,1404240430,204713106,'',-16024,64,-1324,-6,-280,-422,10073
1404240474128303098,,10290,,1404240430,227503061,'',-15960,-20,-1444,4,-274,-403,10073
1404240474128328112,,10291,,1404240430,251770973,'',-16052,36,-1348,-22,-268,-408,10068
1404240474175117188,,10292,,1404240430,276379108,'',-16124,-36,-1340,14,-272,-413,10068
1404240474175146603,,10293,,1404240430,300277948,'',-16024,64,-1236,-12,-273,-394,10068
1404240474220839396,,10294,,1404240430,323398113,'',-16060,20,-1312,-17,-257,-418,10063
1404240474220865649,,10295,,1404240430,348156929,'',-16060,-68,-1388,-1,-251,-405,10068
1404240474370855539,,10296,,1404240430,373018980,'',-15964,-72,-1408,-21,-252,-415,10068
1404240474371145679,,10297,,1404240430,395901918,'',-16052,44,-1280,4,-273,-414,10073
1404240474408031824,,10298,,1404240430,418669939,'',-16116,4,-1380,-21,-272,-417,10063
1404240474408055594,,10299,,1404240430,444765090,'',-15980,-80,-1360,-22,-262,-396,10068
1404240474408066817,,10300,,1404240430,467231988,'',-16152,-60,-1372,7,-275,-424,10073
1404240474455335096,,10301,,1404240430,491709947,'',-16048,-16,-1184,-25,-285,-421,10073
1404240474455352823,,10302,,1404240430,514560937,'',-16156,68,-1236,-9,-287,-397,10063
1404240474503917844,,10303,,1404240430,537095069,'',-16200,36,-1396,-9,-249,-403,10057
1404240474503942419,,10304,,1404240430,563486099,'',-15988,-8,-1276,-14,-235,-411,10073
1404240474503954926,,10305,,1404240430,586112976,'',-16024,72,-1180,-1,-272,-410,10074
1404240474555709728,,10306,,1404240430,608834028,'',-16012,36,-1268,13,-253,-410,10063
1404240474555963308,,10307,,1404240430,631071090,'',-15936,108,-1348,1,-257,-412,10063
1404240474633664771,,10308,,1404240430,656680107,'',-16096,-68,-1380,-25,-268,-413,10063
1404240474633929528,,10309,,1404240430,680022001,'',-16060,8,-1360,0,-267,-398,10068
1404240474677300031,,10310,,1404240430,703372001,'',-16048,28,-1312,-27,-272,-405,10068
1404240474677519753,,10311,,1404240430,727358102,'',-16044,24,-1380,-20,-236,-398,10063
1404240474677743640,,10312,,1404240430,751962900,'',-16092,52,-1340,-17,-268,-399,10063
1404240474716847394,,10313,,1404240430,777252912,'',-16100,76,-1216,-10,-242,-409,10073
1404240474775503335,,10314,,1404240430,801533937,'',-16112,20,-1344,-4,-268,-422,10073
1404240474775781178,,10315,,1404240430,824682950,'',-16100,-36,-1192,-4,-271,-403,10068
1404240474821092990,,10316,,1404240430,849647045,'',-16120,20,-1504,-11,-250,-415,10073
1404240474821234267,,10317,,1404240430,875089883,'',-15960,-32,-1464,-25,-252,-405,10074
1404240474821455257,,10318,,1404240430,898307085,'',-16100,36,-1492,-11,-269,-392,10063
1404240474865969854,,10319,,1404240430,921484947,'',-16028,-48,-1168,-14,-284,-412,10073
1404240474866207308,,10320,,1404240430,943778991,'',-16116,4,-1316,-7,-258,-398,10073
1404240474913046167,,10321,,1404240430,969820976,'',-16072,-4,-1388,-29,-279,-393,10068
1404240474913334140,,10322,,1404240430,993704080,'',-15972,-40,-1344,-7,-261,-420,10068
1404240474959530621,,10323,,1404240431,17055988,'',-16084,12,-1344,-16,-259,-405,10068
1404240474959748528,,10324,,1404240431,40405035,'',-16100,68,-1296,-23,-262,-412,10073
1404240474961638036,,10325,,1404240431,63731908,'',-16092,40,-1360,-3,-263,-426,10073
1404240475008176754,,10326,,1404240431,86652994,'',-15992,32,-1372,1,-278,-393,10063
1404240475008428427,,10327,,1404240431,110177040,'',-16140,40,-1312,-30,-255,-398,10073
1404240475097982119,,10328,,1404240431,133225917,'',-16000,-16,-1420,12,-282,-421,10073
1404240475098352761,,10329,,1404240431,158256053,'',-16076,0,-1348,-9,-267,-422,10073
1404240475148210185,,10330,,1404240431,182715892,'',-16064,-8,-1392,-27,-269,-422,10068
1404240475148355058,,10331,,1404240431,205138921,'',-16024,16,-1260,9,-269,-419,10073
1404240475148567309,,10332,,1404240431,229409933,'',-16012,-104,-1316,-10,-253,-402,10068
1404240475183506594,,10333,,1404240431,254396915,'',-16028,-64,-1312,-5,-273,-427,10068
1404240475231260930,,10334,,1404240431,279591083,'',-15996,88,-1388,-7,-279,-414,10079
1404240475231416259,,10335,,1404240431,302517890,'',-16096,84,-1304,2,-251,-390,10073
1404240475231646230,,10336,,1404240431,326023101,'',-16068,-16,-1336,-23,-268,-418,10068
1404240475282812428,,10337,,1404240431,351201057,'',-15984,-36,-1260,-2,-262,-404,10074
1404240475283197630,,10338,,1404240431,376276969,'',-16144,-44,-1456,19,-232,-411,10068
1404240475331685749,,10339,,1404240431,399873971,'',-16040,-12,-1348,-20,-258,-401,10073
1404240475331936352,,10340,,1404240431,422831058,'',-16128,56,-1392,-11,-274,-418,10068
1404240475410328832,,10341,,1404240431,445422887,'',-16084,60,-1372,-9,-263,-418,10063
1404240475410676249,,10342,,1404240431,469479084,'',-16020,48,-1336,-2,-250,-429,10068
1404240475455242803,,10343,,1404240431,492531061,'',-15988,4,-1376,-32,-249,-416,10068
1404240475455394959,,10344,,1404240431,515657901,'',-16128,84,-1464,17,-286,-411,10073
1404240475455597256,,10345,,1404240431,539093017,'',-16024,48,-1304,-13,-287,-416,10063
1404240475507819857,,10346,,1404240431,564271926,'',-16032,-20,-1324,-10,-261,-405,10073
1404240475508414913,,10347,,1404240431,588257074,'',-16096,-4,-1240,-14,-245,-421,10079
1404240475555331724,,10348,,1404240431,611470937,'',-16068,-16,-1336,5,-272,-412,10073
1404240475555695419,,10349,,1404240431,634176015,'',-16004,64,-1240,-22,-260,-402,10073
1404240475602782490,,10350,,1404240431,659399986,'',-15980,-4,-1260,-3,-240,-419,10073
1404240475603431992,,10351,,1404240431,682569980,'',-15924,40,-1260,9,-269,-408,10068
1404240475644207805,,10352,,1404240431,704981088,'',-16088,60,-1356,11,-268,-412,10068
1404240475644522865,,10353,,1404240431,728579998,'',-16008,4,-1364,-22,-275,-410,10073
1404240475703775161,,10354,,1404240431,753344058,'',-16100,24,-1276,-5,-239,-394,10073
1404240475704022499,,10355,,1404240431,777823925,'',-16080,-32,-1416,0,-245,-422,10073
1404240475758231769,,10356,,1404240431,802906990,'',-15964,36,-1356,-23,-268,-409,10068
1404240475758381811,,10357,,1404240431,826112985,'',-16076,0,-1388,-11,-257,-399,10068
1404240475758598680,,10358,,1404240431,848777055,'',-16036,60,-1336,-23,-271,-418,10068
1404240475798296451,,10359,,1404240431,873476982,'',-16072,64,-1400,-9,-261,-407,10063
1404240475843620455,,10360,,1404240431,896475076,'',-16104,4,-1288,-8,-270,-405,10063
1404240475843884117,,10361,,1404240431,919959068,'',-16004,-32,-1368,0,-266,-393,10068
1404240475844139082,,10362,,1404240431,943049907,'',-16104,100,-1352,-10,-286,-408,10068
1404240475910204315,,10363,,1404240431,966552019,'',-16128,4,-1292,-12,-259,-412,10068
1404240475910408269,,10364,,1404240431,990331888,'',-16020,80,-1168,-11,-268,-423,10073
1404240475956176015,,10365,,1404240432,13868093,'',-16020,68,-1396,-17,-267,-411,10068
1404240475956474227,,10366,,1404240432,37147045,'',-16092,-16,-1300,-7,-280,-411,10068
1404240476005479863,,10367,,1404240432,63957929,'',-16012,-72,-1376,-19,-259,-403,10073
1404240476005654077,,10368,,1404240432,88042974,'',-16096,-40,-1240,22,-290,-403,10073
1404240476005900251,,10369,,1404240432,111021041,'',-16028,-8,-1364,-4,-252,-426,10068
1404240476055380482,,10370,,1404240432,133641958,'',-16112,128,-1424,4,-249,-417,10073
1404240476055824128,,10371,,1404240432,157599925,'',-15932,-8,-1496,-94,-278,-416,10073
1404240476128171834,,10372,,1404240432,183337926,'',-15968,76,-1256,-24,-299,-395,10057
1404240476128430095,,10373,,1404240432,206846952,'',-16016,-140,-1576,-1,-263,-416,10068
1404240476173604679,,10374,,1404240432,230695962,'',-16140,60,-1448,-22,-246,-403,10073
1404240476173864135,,10375,,1404240432,255558967,'',-16068,-8,-1528,-27,-255,-399,10068
1404240476221371063,,10376,,1404240432,280757904,'',-16052,144,-1256,-6,-247,-419,10068
1404240476221637184,,10377,,1404240432,305512905,'',-16040,8,-1500,-20,-267,-410,10068
1404240476264265963,,10378,,1404240432,329087018,'',-16024,20,-1416,12,-264,-418,10073
1404240476264490201,,10379,,1404240432,352437973,'',-16036,80,-1408,-29,-287,-429,10073
1404240476264754478,,10380,,1404240432,377367019,'',-16128,-96,-1340,-28,-255,-405,10063
1404240476314339380,,10381,,1404240432,401710987,'',-16036,-20,-1528,-19,-289,-423,10074
1404240476314569663,,10382,,1404240432,424731969,'',-16040,128,-1396,-79,-326,-417,10068
1404240476360269041,,10383,,1404240432,447666883,'',-16168,128,-1560,-58,-316,-386,10073
1404240476360558433,,10384,,1404240432,472336053,'',-16156,-168,-1212,45,-196,-405,10073
1404240476451176019,,10385,,1404240432,496268033,'',-16068,188,-1328,-2,-265,-422,10073
1404240476451427402,,10386,,1404240432,519345045,'',-16200,-24,-1312,-9,-265,-404,10073
1404240476496594688,,10387,,1404240432,542711973,'',-16080,-44,-1464,-8,-283,-434,10063
1404240476496873620,,10388,,1404240432,568264007,'',-16124,-52,-1236,-40,-306,-421,10068
1404240476543237098,,10389,,1404240432,593075037,'',-16104,-64,-1404,-36,-261,-404,10068
1404240476543404104,,10390,,1404240432,615655899,'',-15960,64,-1404,-8,-253,-389,10073
1404240476543611729,,10391,,1404240432,638438940,'',-16120,-72,-1396,5,-267,-409,10068
1404240476590170677,,10392,,1404240432,663944959,'',-16044,44,-1400,-10,-240,-408,10068
1404240476590429178,,10393,,1404240432,688405990,'',-16164,16,-1220,-10,-269,-399,10068
1404240476639191147,,10394,,1404240432,711278915,'',-15984,4,-1312,28,-250,-386,10068
1404240476639458889,,10395,,1404240432,733753919,'',-16020,28,-1260,0,-273,-395,10068
1404240476684884866,,10396,,1404240432,757703065,'',-16052,0,-1320,-5,-251,-396,10073
1404240476686861794,,10397,,1404240432,781964063,'',-16016,-32,-1300,-10,-290,-400,10073
1404240476733925086,,10398,,1404240432,806704998,'',-15996,92,-1416,-16,-277,-409,10073
1404240476734068507,,10399,,1404240432,830513000,'',-15940,-104,-1176,19,-288,-390,10068
1404240476734260338,,10400,,1404240432,853174924,'',-15908,32,-1332,15,-252,-386,10079
1404240476780197716,,10401,,1404240432,878987073,'',-16192,120,-1356,-28,-326,-407,10073
1404240476780514044,,10402,,1404240432,903760910,'',-16272,-124,-1600,-10,-326,-419,10073
1404240476876438036,,10403,,1404240432,926954984,'',-16120,-112,-876,-73,-333,-414,10063
1404240476876658453,,10404,,1404240432,949579000,'',-16172,-52,-1012,208,-65,-399,10079
1404240476927226871,,10405,,1404240432,973845005,'',-15972,256,-1460,136,-204,-412,10068
1404240476927574551,,10406,,1404240432,996860027,'',-16112,-40,-1632,49,-273,-397,10073
1404240476927889759,,10407,,1404240433,20512104,'',-16044,168,-1552,-61,-337,-443,10063
1404240476972937561,,10408,,1404240433,44217109,'',-16220,-16,-1172,-59,-302,-424,10073
1404240476975657866,,10409,,1404240433,70180892,'',-15972,312,-1452,-1,-265,-421,10068
1404240477043256302,,10410,,1404240433,94762086,'',-16008,188,-1512,-45,-271,-407,10068
1404240477043535506,,10411,,1404240433,119363069,'',-15956,-740,-1340,-44,-312,-442,10068
1404240477104267013,,10412,,1404240433,142019033,'',-16320,-40,-764,334,27,-390,10068
1404240477104539476,,10413,,1404240433,167085886,'',-15884,616,-1928,26,-270,-405,10068
1404240477152927381,,10414,,1404240433,192542076,'',-16092,328,-1428,-39,-282,-423,10063
1404240477153117537,,10415,,1404240433,215749025,'',-16092,372,-1068,6,-278,-408,10068
1404240477153323123,,10416,,1404240433,239038944,'',-15976,124,-1360,-100,-328,-417,10073
1404240477197238163,,10417,,1404240433,263369083,'',-16108,88,-1244,-82,-278,-416,10068
1404240477197934180,,10418,,1404240433,288256883,'',-16052,-324,-1540,38,-264,-409,10063
1404240477245896979,,10419,,1404240433,311958074,'',-16044,616,-1340,17,-173,-394,10073
1404240477246164264,,10420,,1404240433,335431098,'',-16304,60,-1356,-52,-204,-414,10073
1404240477291198030,,10421,,1404240433,360856056,'',-15768,900,-1504,-116,-29,-322,10073
1404240477291427091,,10422,,1404240433,385711908,'',-15116,100,-1872,-287,-73,-441,10068
1404240477342025855,,10423,,1404240433,409965991,'',-16000,-236,-1780,-507,50,-542,10073
1404240477342443834,,10424,,1404240433,433073043,'',-16400,-52,-1436,-739,-23,-385,10068
1404240477382034995,,10425,,1404240433,456787109,'',-15564,-188,-920,-834,-88,-291,10068
1404240477382185170,,10426,,1404240433,484189987,'',-16776,308,-1696,-821,-271,-240,10073
1404240477382376030,,10427,,1404240433,507991075,'',-16392,1284,-1908,-863,-40,774,10068
1404240477434396878,,10428,,1404240433,532537937,'',-17248,1204,-1544,-752,-192,1416,10068
1404240477434830616,,10429,,1404240433,555867910,'',-17456,428,-1824,-530,-733,1590,10068
1404240477483625905,,10430,,1404240433,581990003,'',-16400,940,-1232,51,-217,2477,10068
1404240477483878250,,10431,,1404240433,605463981,'',-16180,1636,-1432,312,3,3405,10073
1404240477530469433,,10432,,1404240433,629364967,'',-16116,1608,-1240,485,-228,3512,10073
1404240477530750720,,10433,,1404240433,653214931,'',-16564,1980,-1636,765,-258,-258,10068
1404240477575202361,,10434,,1404240433,678287982,'',-17364,1928,-1652,926,-668,3214,10073
1404240477575472107,,10435,,1404240433,702976942,'',-17512,2180,-1772,1161,-917,2866,10068
1404240477623272781,,10436,,1404240433,727710962,'',-17488,2656,-1900,1449,-765,2017,10068
1404240477623909217,,10437,,1404240433,751357078,'',-17312,2556,-1544,1354,-549,1875,10068
1404240477624087282,,10438,,1404240433,776189088,'',-16968,2584,-1356,927,-254,1944,10068
1404240477672917942,,10439,,1404240433,801094055,'',-16480,2200,-1528,357,349,2326,10068
1404240477673159749,,10440,,1404240433,825691938,'',-15808,2904,-1476,-197,1611,3321,10063
1404240477717118690,,10441,,1404240433,849906921,'',-15524,2424,-1404,-162,2379,3843,10073
1404240477717576838,,10442,,1404240433,876060009,'',-15592,2692,-1976,-306,2421,4202,10074
1404240477832101614,,10443,,1404240433,900593996,'',-14868,2732,-1780,-314,2215,4521,10068
1404240477832314699,,10444,,1404240433,925185918,'',-14972,2788,-2032,-389,1525,4979,10073
1404240477883853280,,10445,,1404240433,949193000,'',-14456,2672,-1672,-639,-617,6407,10073
1404240477884136605,,10446,,1404240433,974378108,'',-14148,2208,-1504,-699,-1233,7004,10063
1404240477931820025,,10447,,1404240434,945091,'',-14544,2092,-1664,-724,-1859,7554,10073
1404240477931996643,,10448,,1404240434,25320053,'',-14300,2480,-1708,-624,-2092,7832,10074
1404240477932225736,,10449,,1404240434,49932956,'',-14772,3472,-1620,-41,-1824,8129,10073
1404240477977791993,,10450,,1404240434,75300931,'',-14768,3552,-1320,272,-1586,7830,10068
1404240477978360791,,10451,,1404240434,101747989,'',-14944,3716,-1280,716,-1405,7402,10073
1404240478025260374,,10452,,1404240434,125993013,'',-15012,5056,-1536,1109,-673,5899,10063
1404240478025548350,,10453,,1404240434,149673938,'',-15272,5312,-1448,1051,-523,5095,10079
1404240478146207271,,10454,,1404240434,174618959,'',-15048,5600,-1376,760,-312,4258,10068
1404240478146454940,,10455,,1404240434,199275970,'',-14936,5716,-1476,217,67,3606,10073
1404240478196932942,,10456,,1404240434,223840951,'',-14572,5808,-1416,-317,558,3243,10063
1404240478197185121,,10457,,1404240434,248022079,'',-14324,6636,-1664,-1270,987,2537,10068
1404240478243103281,,10458,,1404240434,274243116,'',-14192,6748,-1528,-1667,1105,2584,10068
1404240478243381886,,10459,,1404240434,302171945,'',-13896,6912,-1400,-2028,1079,2717,10068
1404240478290718510,,10460,,1404240434,326661109,'',-13644,7668,-1700,-1899,592,3040,10073
1404240478291063127,,10461,,1404240434,350800991,'',-13424,7964,-1460,-1517,354,3507,10068
1404240478360161206,,10462,,1404240434,375839948,'',-13508,7760,-1268,-1257,69,4022,10073
1404240478360379224,,10463,,1404240434,401904106,'',-13424,7940,-1300,-1116,-187,4401,10068
1404240478408913562,,10464,,1404240434,426948070,'',-13104,8584,-1120,-1004,-622,5800,10063
1404240478409101797,,10465,,1404240434,450972080,'',-12892,8876,-1420,-1330,-674,6106,10068
1404240478409299632,,10466,,1404240434,476197004,'',-12932,9164,-1288,-1325,-717,6422,10073
1404240478459531667,,10467,,1404240434,502043962,'',-13048,9412,-1208,-1290,-805,6300,10073
1404240478460155881,,10468,,1404240434,526679039,'',-12780,10444,-1428,-923,-961,5040,10073
1404240478505302181,,10469,,1404240434,551187992,'',-13012,10956,-1016,-752,-990,4555,10063
1404240478505590952,,10470,,1404240434,576226949,'',-17240,14304,-1556,1808,397,1081,10068
1404240478557462600,,10471,,1404240434,600855112,'',-12176,9612,-1556,470,261,1679,10073
1404240478558636612,,10472,,1404240434,624926090,'',-12036,10948,-1732,-600,-25,2889,10068
1404240478607217830,,10473,,1404240434,649616956,'',-12596,10980,-2212,-998,-355,3198,10068
1404240478607416775,,10474,,1404240434,675416946,'',-12340,10876,-1548,-1070,145,3791,10079
1404240478672623170,,10475,,1404240434,699593067,'',-12380,9812,-1428,-697,581,4396,10068
1404240478672815611,,10476,,1404240434,724371910,'',-11876,11168,-1208,-712,533,5283,10068
1404240478673070313,,10477,,1404240434,748256921,'',-11092,9928,-1568,-858,764,5235,10068
1404240478760042020,,10478,,1404240434,773586988,'',-11652,11832,-900,-826,523,5733,10068
1404240478760256661,,10479,,1404240434,799665927,'',-10748,12024,-972,-250,-209,6001,10068
1404240478807733129,,10480,,1404240434,824692964,'',-10724,12084,-1108,100,-560,6213,10073
1404240478807897316,,10481,,1404240434,848509073,'',-10240,12056,-1204,165,-441,6122,10073
1404240478808636220,,10482,,1404240434,873112916,'',-9984,12496,-1556,149,-314,6056,10063
1404240478856879781,,10483,,1404240434,898252964,'',-9908,12548,-1480,49,-316,6094,10073
1404240478857113949,,10484,,1404240434,922430038,'',-9944,12584,-1340,-170,-268,6251,10073
1404240478904873801,,10485,,1404240434,946026086,'',-9136,13032,-1176,-122,-83,6673,10062
1404240478905172764,,10486,,1404240434,970042943,'',-8712,13524,-1336,-95,0,6495,10073
1404240478951232827,,10487,,1404240434,995784044,'',-8272,13972,-1372,-9,-130,6344,10068
1404240478951492917,,10488,,1404240435,19737005,'',-7968,14052,-1664,-81,-394,6223,10063
1404240479000292163,,10489,,1404240435,43723106,'',-7864,14304,-908,342,-375,6126,10068
1404240479000535958,,10490,,1404240435,69453954,'',-7520,14296,-1244,465,-219,6028,10063
1404240479048892057,,10491,,1404240435,95433950,'',-7304,14568,-1596,315,-160,5870,10073
1404240479049130997,,10492,,1404240435,119889020,'',-6580,14916,-1880,102,-394,5566,10068
1404240479111222614,,10493,,1404240435,144267082,'',-6932,14860,-1348,131,-1090,4989,10068
1404240479111514312,,10494,,1404240435,169810056,'',-6936,14220,-584,226,-891,5366,10068
1404240479157685956,,10495,,1404240435,196036100,'',-6936,14612,-1964,50,-672,5816,10068
1404240479157940816,,10496,,1404240435,220124006,'',-6284,14968,-1456,-566,-221,5984,10068
1404240479202630137,,10497,,1404240435,243757009,'',-5520,15268,-1400,-863,-48,5975,10068
1404240479202877679,,10498,,1404240435,269750118,'',-5592,15284,-1216,-766,-196,6103,10068
1404240479250144105,,10499,,1404240435,295453071,'',-5360,15104,-756,-526,-257,6429,10068
1404240479250290477,,10500,,1404240435,321443080,'',-4764,15580,-1172,-384,-227,6534,10073
1404240479250500060,,10501,,1404240435,345541000,'',-3508,16240,-1452,-273,-362,5753,10073
1404240479298101897,,10502,,1404240435,371256113,'',-3376,16132,-1240,-226,-428,5338,10073
1404240479298408205,,10503,,1404240435,397629976,'',-3408,16220,-1108,-160,-319,5021,10068
1404240479345190741,,10504,,1404240435,421814918,'',-3356,16176,-1132,-224,-310,4900,10063
1404240479345588011,,10505,,1404240435,445499897,'',-2788,16260,-1520,-127,-835,4714,10073
1404240479394179051,,10506,,1404240435,471843004,'',-2520,16380,-1256,-62,-967,4501,10073
1404240479394436140,,10507,,1404240435,497227907,'',-2348,16380,-1012,-83,-753,4218,10068
1404240479486953774,,10508,,1404240435,522345066,'',-2672,16156,-1016,-129,-675,4228,10079
1404240479487278697,,10509,,1404240435,546019077,'',-2384,16004,-932,-392,-221,4411,10073
1404240479533724947,,10510,,1404240435,571594953,'',-1928,16284,-936,-310,-165,4488,10068
1404240479534182156,,10511,,1404240435,596884012,'',-1448,16552,-960,-287,-217,4401,10068
1404240479534491820,,10512,,1404240435,620376110,'',-968,16780,-884,-91,-223,4063,10073
1404240479579309735,,10513,,1404240435,643848896,'',-1052,16560,-1056,144,-182,3392,10073
1404240479579618057,,10514,,1404240435,669213056,'',-904,16244,-1384,-18,-152,3347,10068
1404240479628391736,,10515,,1404240435,694818019,'',-472,16596,-1328,-218,-250,3243,10068
1404240479628669104,,10516,,1404240435,720041036,'',-236,16784,-1304,-206,-323,3028,10063
1404240479677230371,,10517,,1404240435,743053913,'',-108,16840,-740,-70,-383,2338,10063
1404240479677485761,,10518,,1404240435,765548944,'',-36,16744,-676,-87,-321,2096,10073
1404240479717581748,,10519,,1404240435,790652990,'',-132,16468,-980,-83,-164,2029,10063
1404240479718098379,,10520,,1404240435,815392017,'',192,16620,-940,-44,-163,1909,10068
1404240479763506311,,10521,,1404240435,838141918,'',180,16748,-860,15,-210,1777,10068
1404240479764925792,,10522,,1404240435,860677003,'',76,16504,-1280,289,-323,1694,10068
1404240479765504011,,10523,,1404240435,884033918,'',32,16228,-1156,306,-386,1928,10073
1404240479813363443,,10524,,1404240435,907792091,'',356,16360,-1056,368,-410,2149,10068
1404240479813616213,,10525,,1404240435,931134939,'',-2084,13668,692,296,-665,1626,10068
1404240479869397156,,10526,,1404240435,953517913,'',2648,17228,-848,58,-15,-268,10068
1404240479869759154,,10527,,1404240435,977113008,'',268,19148,-820,81,-308,-719,10062
1404240479922365869,,10528,,1404240436,2389907,'',648,17860,-1048,285,-216,-434,10079
1404240479922486753,,10529,,1404240436,25278091,'',616,17396,-1448,90,-378,-408,10073
1404240479922643768,,10530,,1404240436,49211025,'',364,17140,-1420,-152,-183,-403,10063
1404240479968473464,,10531,,1404240436,74493885,'',560,16828,-1312,-267,-241,-339,10073
1404240479968993782,,10532,,1404240436,100984096,'',352,16680,-1296,-380,-304,-234,10073
1404240480019273661,,10533,,1404240436,124763965,'',596,16580,-1216,-454,-254,-105,10068
1404240480019487885,,10534,,1404240436,147595882,'',964,16704,-932,-285,-273,-242,10073
1404240480057915397,,10535,,1404240436,173717021,'',652,16620,-1012,-143,-323,-384,10073
1404240480058593621,,10536,,1404240436,197663068,'',488,16188,-956,-66,-398,-253,10073
1404240480107256679,,10537,,1404240436,222307920,'',588,16508,-1556,-356,-414,-116,10073
1404240480107472694,,10538,,1404240436,245207071,'',476,16664,-1128,-458,-391,-49,10073
1404240480152143877,,10539,,1404240436,267752885,'',540,16332,-880,-545,-449,77,10068
1404240480152455359,,10540,,1404240436,292098045,'',652,16472,-872,-566,-384,126,10068
1404240480201668880,,10541,,1404240436,315738916,'',820,16824,-1056,-549,-322,70,10068
1404240480201813272,,10542,,1404240436,339375019,'',892,16540,-884,-404,-261,-94,10068
1404240480202023856,,10543,,1404240436,362313985,'',928,16484,-996,-250,-267,-358,10073
1404240480246488809,,10544,,1404240436,385550975,'',512,16536,-704,-232,-271,-336,10068
1404240480246775865,,10545,,1404240436,410000085,'',660,16544,-816,-118,-262,-300,10068
1404240480292945843,,10546,,1404240436,433062076,'',948,16528,-812,14,-286,-392,10073
1404240480293243095,,10547,,1404240436,455028057,'',832,16484,-884,25,-266,-430,10068
1404240480339591402,,10548,,1404240436,479506969,'',768,16472,-856,-16,-278,-394,10068
1404240480339829969,,10549,,1404240436,504272937,'',960,16552,-776,-22,-271,-407,10063
1404240480388100504,,10550,,1404240436,527575016,'',800,16528,-888,-27,-256,-418,10068
1404240480388239629,,10551,,1404240436,550899028,'',664,16604,-868,-47,-276,-382,10073
1404240480388409416,,10552,,1404240436,575728893,'',848,16560,-812,-64,-278,-365,10073
1404240480435393616,,10553,,1404240436,598414897,'',828,16648,-816,-28,-265,-425,10073
1404240480435804488,,10554,,1404240436,623312950,'',780,16492,-892,-5,-247,-385,10073
1404240480481233632,,10555,,1404240436,646267890,'',712,16608,-768,-37,-269,-380,10063
1404240480481506161,,10556,,1404240436,669425964,'',748,16436,-772,-11,-274,-386,10068
1404240480569683652,,10557,,1404240436,693213939,'',832,16572,-732,4,-256,-424,10068
1404240480570020754,,10558,,1404240436,716011047,'',836,16580,-892,-12,-272,-422,10073
1404240480638328389,,10559,,1404240436,739439964,'',668,16512,-852,-5,-279,-411,10068
1404240480638465499,,10560,,1404240436,762011051,'',664,16500,-704,-8,-242,-415,10068
1404240480638663385,,10561,,1404240436,785017013,'',708,16476,-908,15,-270,-414,10073
1404240480684167658,,10562,,1404240436,810393095,'',832,16420,-836,5,-249,-395,10073
1404240480684547257,,10563,,1404240436,833754062,'',744,16472,-1012,-29,-263,-375,10063
1404240480734580975,,10564,,1404240436,857299089,'',804,16568,-872,-13,-237,-409,10073
1404240480734828115,,10565,,1404240436,880979061,'',792,16460,-892,-7,-288,-406,10073
1404240480776078789,,10566,,1404240436,906970977,'',812,16592,-832,-33,-263,-390,10068
1404240480776620244,,10567,,1404240436,930116891,'',800,16596,-1028,-26,-271,-397,10068
1404240480839254207,,10568,,1404240436,952950954,'',796,16484,-1096,-3,-271,-396,10073
1404240480839388347,,10569,,1404240436,977747917,'',784,16432,-792,-14,-277,-428,10073
1404240480839576653,,10570,,1404240437,89883,'',736,16492,-888,-25,-278,-409,10068
1404240480892636717,,10571,,1404240437,25626897,'',760,16532,-908,-4,-251,-435,10068
1404240480892921718,,10572,,1404240437,48610925,'',708,16504,-948,-16,-248,-420,10073
1404240480939417151,,10573,,1404240437,72185039,'',684,16488,-744,-10,-273,-393,10063
1404240480939830068,,10574,,1404240437,95396995,'',796,16520,-872,2,-261,-410,10073
1404240480989636440,,10575,,1404240437,118552923,'',780,16460,-720,8,-286,-418,10074
1404240480989917268,,10576,,1404240437,141745090,'',704,16552,-872,-8,-259,-398,10073
1404240481042852109,,10577,,1404240437,164125919,'',768,16520,-828,-6,-263,-410,10068
1404240481043107041,,10578,,1404240437,187298059,'',684,16500,-940,-9,-247,-405,10073
1404240481043340930,,10579,,1404240437,211750030,'',748,16452,-784,-2,-280,-406,10063
1404240481092649901,,10580,,1404240437,234653949,'',764,16596,-968,7,-277,-400,10068
1404240481092983417,,10581,,1404240437,256566047,'',784,16572,-788,0,-264,-412,10073
1404240481137953597,,10582,,1404240437,281342029,'',860,16504,-880,-24,-280,-407,10068
1404240481138544733,,10583,,1404240437,306716918,'',652,16520,-800,-13,-250,-399,10063
1404240481188021346,,10584,,1404240437,331660032,'',764,16584,-784,-16,-262,-400,10068
1404240481188266161,,10585,,1404240437,354235887,'',796,16544,-840,-6,-246,-417,10068
1404240481236717384,,10586,,1404240437,378788948,'',800,16492,-892,-12,-237,-415,10068
1404240481236896847,,10587,,1404240437,401489019,'',820,16492,-804,-19,-248,-406,10073
1404240481237120251,,10588,,1404240437,425303936,'',824,16536,-936,-21,-245,-416,10068
1404240481286035956,,10589,,1404240437,448314905,'',632,16556,-880,-10,-241,-413,10068
1404240481286259312,,10590,,1404240437,470649003,'',772,16556,-748,2,-252,-410,10063
1404240481329031321,,10591,,1404240437,493922948,'',768,16564,-1064,18,-263,-386,10068
1404240481329365216,,10592,,1404240437,517851114,'',788,16504,-764,-22,-274,-396,10073
1404240481380184298,,10593,,1404240437,541588068,'',860,16528,-812,-10,-261,-410,10073
1404240481380337979,,10594,,1404240437,564202070,'',684,16508,-776,-4,-272,-409,10073
1404240481380548201,,10595,,1404240437,587574005,'',624,16488,-848,-18,-258,-401,10073
1404240481442053416,,10596,,1404240437,612116098,'',764,16552,-920,-4,-248,-412,10063
1404240481442493404,,10597,,1404240437,634618997,'',728,16500,-816,-15,-279,-412,10068
1404240481491519742,,10598,,1404240437,657519102,'',724,16532,-1012,-2,-272,-388,10068
1404240481492044795,,10599,,1404240437,681399106,'',716,16444,-916,5,-284,-404,10063
1404240481541974688,,10600,,1404240437,703937053,'',800,16520,-672,-17,-294,-405,10068
1404240481542264899,,10601,,1404240437,728085994,'',748,16496,-912,-6,-295,-389,10063
1404240481542546302,,10602,,1404240437,750536918,'',792,16560,-752,-29,-255,-418,10063
1404240481604345976,,10603,,1404240437,773442983,'',732,16428,-928,-2,-246,-397,10068
1404240481604600568,,10604,,1404240437,796389102,'',704,16480,-1032,-14,-266,-417,10068
1404240481654692132,,10605,,1404240437,821507930,'',808,16592,-844,-21,-247,-400,10073
1404240481655118087,,10606,,1404240437,843920946,'',752,16552,-896,-8,-271,-421,10068
1404240481705352858,,10607,,1404240437,867104053,'',744,16444,-928,-10,-259,-412,10068
1404240481708023609,,10608,,1404240437,890487909,'',824,16564,-920,14,-261,-401,10068
1404240481757747393,,10609,,1404240437,914920091,'',840,16620,-860,-1,-289,-397,10063
1404240481757911565,,10610,,1404240437,937577009,'',744,16596,-980,-3,-250,-413,10068
1404240481758111692,,10611,,1404240437,960120916,'',812,16380,-920,-29,-283,-411,10073
1404240481802496107,,10612,,1404240437,984298944,'',764,16512,-948,-1,-292,-413,10073
1404240481802756234,,10613,,1404240438,8236885,'',784,16436,-752,-22,-276,-406,10079
1404240481851215662,,10614,,1404240438,31599044,'',700,16532,-772,-9,-268,-409,10073
1404240481851650715,,10615,,1404240438,54321050,'',764,16532,-760,-8,-263,-428,10068
1404240481900503419,,10616,,1404240438,78280925,'',776,16580,-812,-27,-241,-410,10068
1404240481900674807,,10617,,1404240438,102802991,'',780,16524,-924,-11,-242,-395,10068
1404240481900879529,,10618,,1404240438,126583099,'',768,16492,-940,-12,-253,-411,10073
1404240481955316364,,10619,,1404240438,149455070,'',828,16444,-824,-7,-267,-415,10073
1404240481955633483,,10620,,1404240438,171828031,'',736,16436,-788,-23,-267,-406,10073
1404240482008758438,,10621,,1404240438,195839881,'',648,16480,-856,-10,-270,-396,10073
1404240482009350473,,10622,,1404240438,220539093,'',740,16560,-848,-36,-260,-419,10062
1404240482054894688,,10623,,1404240438,244353055,'',764,16428,-812,-4,-259,-404,10068
1404240482055207969,,10624,,1404240438,266961097,'',760,16524,-868,-14,-292,-405,10068
1404240482105450187,,10625,,1404240438,290719032,'',820,16544,-804,-25,-264,-392,10073
1404240482105711217,,10626,,1404240438,314827919,'',732,16564,-828,1,-253,-413,10068
1404240482157165959,,10627,,1404240438,339452981,'',756,16580,-896,-2,-269,-429,10073
1404240482157331821,,10628,,1404240438,362484931,'',716,16436,-944,-8,-267,-397,10068
1404240482157547915,,10629,,1404240438,385801076,'',708,16556,-716,-4,-260,-410,10073
1404240482224722716,,10630,,1404240438,409301042,'',888,16480,-880,-5,-283,-391,10079
1404240482225215460,,10631,,1404240438,431423902,'',760,16516,-952,5,-260,-401,10068
1404240482273050095,,10632,,1404240438,454035043,'',732,16472,-892,-1,-256,-414,10073
1404240482273389261,,10633,,1404240438,476914882,'',808,16488,-924,-7,-288,-403,10073
1404240482323246165,,10634,,1404240438,499650001,'',656,16572,-900,-8,-258,-412,10068
1404240482323414540,,10635,,1404240438,524466991,'',800,16464,-776,-14,-273,-403,10068
1404240482323618832,,10636,,1404240438,547627925,'',780,16484,-824,-13,-269,-403,10073
1404240482369487493,,10637,,1404240438,570384025,'',684,16552,-676,-28,-251,-406,10073
1404240482369737513,,10638,,1404240438,594224929,'',804,16520,-880,-29,-269,-429,10068
1404240482419590592,,10639,,1404240438,618701934,'',716,16456,-892,-32,-290,-406,10063
1404240482420216717,,10640,,1404240438,642904043,'',800,16500,-868,-27,-257,-398,10073
1404240482474957635,,10641,,1404240438,665450096,'',824,16532,-828,-3,-268,-405,10073
1404240482475336633,,10642,,1404240438,688867092,'',720,16472,-772,-27,-242,-422,10068
1404240482520637763,,10643,,1404240438,712399005,'',688,16520,-836,-39,-270,-399,10068
1404240482520886787,,10644,,1404240438,735600948,'',688,16488,-872,3,-234,-408,10073
1404240482521162752,,10645,,1404240438,757951974,'',800,16524,-888,-28,-277,-415,10068
1404240482569773654,,10646,,1404240438,780960083,'',732,16488,-900,-5,-254,-401,10073
1404240482571079714,,10647,,1404240438,805603981,'',780,16512,-972,-23,-257,-418,10068
1404240482674013528,,10648,,1404240438,830967903,'',704,16504,-812,0,-274,-385,10062
1404240482674207351,,10649,,1404240438,853096961,'',800,16508,-888,-9,-266,-407,10063
1404240482722946815,,10650,,1404240438,876455068,'',668,16488,-792,-18,-263,-392,10068
1404240482723183677,,10651,,1404240438,898648023,'',784,16504,-856,11,-267,-408,10068
1404240482723381814,,10652,,1404240438,921477079,'',800,16500,-748,4,-269,-404,10073
1404240482769781581,,10653,,1404240438,945390939,'',688,16504,-860,1,-256,-431,10073
1404240482769925134,,10654,,1404240438,967991113,'',692,16540,-856,-18,-263,-406,10068
1404240482770130813,,10655,,1404240438,991202116,'',708,16580,-816,-16,-268,-442,10062
1404240482811406250,,10656,,1404240439,14100074,'',796,16608,-752,-5,-283,-404,10073
1404240482811803551,,10657,,1404240439,36920070,'',744,16504,-944,-30,-250,-407,10068
1404240482861095520,,10658,,1404240439,60456037,'',844,16568,-816,-16,-262,-400,10068
1404240482861308470,,10659,,1404240439,84867000,'',776,16492,-796,-22,-254,-403,10073
1404240482963345839,,10660,,1404240439,107954978,'',708,16596,-824,-21,-244,-398,10068
1404240482963371163,,10661,,1404240439,133069038,'',824,16540,-788,-32,-274,-421,10068
1404240482991353160,,10662,,1404240439,156454086,'',756,16608,-804,-26,-275,-390,10068
1404240482991376376,,10663,,1404240439,179965019,'',748,16464,-896,-30,-265,-407,10079
1404240483040557832,,10664,,1404240439,202558994,'',784,16440,-780,-13,-244,-423,10073
1404240483040579571,,10665,,1404240439,227616071,'',716,16388,-816,-13,-255,-397,10073
1404240483040591176,,10666,,1404240439,250080108,'',752,16560,-788,-12,-249,-419,10068
1404240483085770963,,10667,,1404240439,272258996,'',828,16460,-792,2,-245,-420,10073
1404240483085792653,,10668,,1404240439,295696020,'',704,16540,-768,-17,-271,-384,10068
1404240483143449044,,10669,,1404240439,320734977,'',848,16512,-868,16,-258,-401,10068
1404240483143478347,,10670,,1404240439,344118118,'',656,16476,-776,-24,-259,-392,10068
1404240483193166766,,10671,,1404240439,367181062,'',736,16508,-812,-21,-276,-403,10079
1404240483193192834,,10672,,1404240439,390252113,'',836,16552,-896,2,-258,-425,10073
1404240483193205679,,10673,,1404240439,413233995,'',776,16508,-896,0,-262,-420,10057
1404240483241584732,,10674,,1404240439,437256097,'',764,16536,-832,-29,-269,-386,10073
1404240483241846844,,10675,,1404240439,459913015,'',780,16516,-848,-23,-275,-421,10073
1404240483279611509,,10676,,1404240439,483655929,'',724,16356,-944,-16,-270,-376,10073
1404240483280208609,,10677,,1404240439,507494926,'',800,16448,-920,-11,-269,-392,10068
1404240483321906583,,10678,,1404240439,532198905,'',764,16556,-876,-13,-262,-416,10073
1404240483322161041,,10679,,1404240439,555573940,'',776,16472,-984,-11,-253,-415,10068
1404240483370677582,,10680,,1404240439,578620910,'',756,16488,-956,-7,-279,-403,10079
1404240483371096843,,10681,,1404240439,601268053,'',792,16472,-988,-10,-249,-399,10068
1404240483419685488,,10682,,1404240439,624943971,'',760,16504,-1060,0,-270,-395,10068
1404240483419832371,,10683,,1404240439,648367881,'',792,16568,-940,-24,-263,-396,10068
1404240483420033857,,10684,,1404240439,670984029,'',868,16452,-836,-20,-316,-401,10073
1404240483467855922,,10685,,1404240439,694861888,'',716,16552,-740,-18,-262,-401,10073
1404240483468165990,,10686,,1404240439,717533111,'',820,16528,-800,7,-275,-394,10073
1404240483529751245,,10687,,1404240439,741874933,'',732,16488,-852,-14,-278,-424,10073
1404240483530120951,,10688,,1404240439,764467000,'',796,16496,-1012,1,-246,-399,10073
1404240483589062356,,10689,,1404240439,788450002,'',744,16472,-904,5,-287,-418,10068
1404240483590263492,,10690,,1404240439,812958955,'',760,16556,-864,-18,-272,-395,10062
1404240483591991670,,10691,,1404240439,837531089,'',888,16504,-816,-8,-272,-405,10068
1404240483665588054,,10692,,1404240439,860945940,'',796,16520,-972,-18,-263,-403,10068
1404240483665841572,,10693,,1404240439,883594989,'',804,16520,-944,-6,-276,-413,10079
1404240483756566836,,10694,,1404240439,906714916,'',752,16512,-1028,-14,-273,-381,10068
1404240483761789261,,10695,,1404240439,929604053,'',676,16596,-740,-22,-271,-427,10073
1404240483785688108,,10696,,1404240439,954209089,'',856,16524,-896,15,-254,-394,10062
1404240483786049388,,10697,,1404240439,976927995,'',768,16624,-804,-23,-278,-416,10073
1404240483834762720,,10698,,1404240440,773906,'',736,16536,-904,-4,-255,-405,10068
1404240483834785186,,10699,,1404240440,24401903,'',792,16548,-944,-21,-263,-406,10073
1404240483834796851,,10700,,1404240440,47278881,'',800,16540,-904,-25,-267,-416,10068
1404240483881686557,,10701,,1404240440,70470094,'',648,16464,-948,-30,-273,-397,10068
1404240483881705359,,10702,,1404240440,94265937,'',844,16564,-872,-6,-269,-416,10068
1404240483933469703,,10703,,1404240440,118189096,'',732,16496,-812,-35,-237,-419,10068
1404240483933490796,,10704,,1404240440,141756057,'',776,16400,-708,-14,-252,-375,10073
1404240483978834729,,10705,,1404240440,165118932,'',772,16524,-836,-23,-261,-420,10068
1404240483978855166,,10706,,1404240440,188321113,'',764,16620,-808,-32,-267,-393,10073
1404240483978865983,,10707,,1404240440,211955070,'',712,16496,-908,-3,-277,-410,10068
1404240484018746345,,10708,,1404240440,238168954,'',900,16608,-712,-11,-243,-405,10073
1404240484065749463,,10709,,1404240440,261531114,'',696,16592,-720,-16,-273,-434,10073
1404240484065913068,,10710,,1404240440,284614086,'',716,16512,-892,-11,-247,-398,10068
1404240484066125088,,10711,,1404240440,306835889,'',732,16500,-832,9,-255,-401,10068
1404240484128936446,,10712,,1404240440,331465005,'',664,16532,-980,9,-277,-402,10068
1404240484129242413,,10713,,1404240440,354736089,'',852,16520,-924,-10,-256,-402,10073
1404240484171410568,,10714,,1404240440,377712965,'',776,16516,-844,-18,-266,-400,10062
1404240484171657651,,10715,,1404240440,401451110,'',708,16552,-776,-20,-258,-395,10068
1404240484220276472,,10716,,1404240440,425401926,'',744,16508,-936,-19,-228,-393,10068
1404240484221299738,,10717,,1404240440,449019908,'',752,16608,-640,-26,-282,-402,10068
1404240484266425559,,10718,,1404240440,471684932,'',708,16560,-796,0,-251,-394,10073
1404240484266444616,,10719,,1404240440,495657920,'',824,16512,-812,-28,-278,-388,10063
1404240484266718609,,10720,,1404240440,518879890,'',780,16524,-976,4,-253,-410,10073
1404240484389447983,,10721,,1404240440,542390108,'',772,16496,-820,-8,-268,-418,10068
1404240484389654956,,10722,,1404240440,564965963,'',876,16492,-888,-32,-268,-398,10079
1404240484509245541,,10723,,1404240440,588752031,'',892,16596,-968,-13,-245,-408,10062
1404240484509430102,,10724,,1404240440,612802982,'',748,16476,-828,-21,-258,-413,10073
1404240484509609605,,10725,,1404240440,635191917,'',836,16512,-868,-9,-286,-404,10068
1404240484553786814,,10726,,1404240440,659353017,'',696,16472,-948,-9,-244,-414,10068
1404240484553807159,,10727,,1404240440,682806015,'',708,16440,-1088,-5,-248,-405,10079
1404240484605406309,,10728,,1404240440,706401109,'',796,16524,-880,-15,-274,-412,10079
1404240484605423535,,10729,,1404240440,730470895,'',780,16500,-888,-25,-261,-406,10073
1404240484605431695,,10730,,1404240440,753160953,'',776,16516,-688,-25,-268,-384,10068
1404240484655325153,,10731,,1404240440,775270938,'',696,16484,-716,33,-280,-400,10079
1404240484655341096,,10732,,1404240440,799001932,'',804,16600,-840,-3,-236,-415,10068
1404240484706214869,,10733,,1404240440,823214054,'',840,16536,-792,-9,-274,-412,10068
1404240484706250194,,10734,,1404240440,847680091,'',772,16544,-756,-7,-270,-415,10062
1404240484751376874,,10735,,1404240440,871052980,'',756,16468,-1000,-17,-266,-401,10068
1404240484751397199,,10736,,1404240440,895752906,'',764,16480,-844,-31,-257,-419,10079
1404240484832994583,,10737,,1404240440,919183015,'',904,16508,-836,-16,-272,-406,10068
1404240484833011971,,10738,,1404240440,943689107,'',656,16456,-796,-16,-233,-394,10079
1404240484833021220,,10739,,1404240440,966362953,'',792,16520,-856,-27,-259,-419,10073
1404240484882859834,,10740,,1404240440,989192008,'',840,16520,-952,-15,-275,-401,10068
1404240484883208125,,10741,,1404240441,12763023,'',736,16572,-836,7,-262,-409,10073
1404240484928370415,,10742,,1404240441,36128997,'',792,16540,-924,-10,-283,-402,10073
1404240484928640444,,10743,,1404240441,59876918,'',716,16400,-824,-32,-301,-395,10073
1404240484928917136,,10744,,1404240441,82712888,'',796,16580,-928,-13,-304,-413,10079
1404240484979246405,,10745,,1404240441,106563091,'',744,16540,-812,-3,-269,-414,10073
1404240484979514779,,10746,,1404240441,129916906,'',748,16560,-800,-7,-257,-428,10068
1404240485026354897,,10747,,1404240441,153618097,'',820,16496,-876,-4,-257,-436,10068
1404240485026560028,,10748,,1404240441,175745010,'',740,16664,-828,-8,-266,-380,10068
1404240485076093105,,10749,,1404240441,199790954,'',768,16476,-964,2,-272,-393,10062
1404240485076305357,,10750,,1404240441,222970008,'',808,16552,-772,12,-274,-426,10057
1404240485121345878,,10751,,1404240441,247251987,'',728,16560,-700,5,-258,-412,10073
1404240485121497537,,10752,,1404240441,269870042,'',780,16560,-708,-9,-261,-394,10068
1404240485121689397,,10753,,1404240441,292532920,'',729,-258,-258,-258,-258,-258,10073
1404240485170170527,,10754,,1404240441,317537069,'',696,16492,-760,-8,-259,-412,10068
1404240485171401467,,10755,,1404240441,340986967,'',744,16624,-760,-9,-291,-400,10073
1404240485221328674,,10756,,1404240441,365438938,'',760,16544,-836,15,-281,-389,10079
1404240485221578887,,10757,,1404240441,387773036,'',748,16488,-736,0,-272,-419,10073
1404240485268137105,,10758,,1404240441,410063028,'',792,16560,-788,0,-272,-423,10057
1404240485268299356,,10759,,1404240441,432612895,'',704,16544,-780,6,-269,-397,10068
1404240485268502070,,10760,,1404240441,456126928,'',624,16484,-916,-11,-264,-417,10073
1404240485315494842,,10761,,1404240441,479394912,'',816,16436,-924,-12,-278,-420,10068
1404240485315775206,,10762,,1404240441,502075910,'',764,16540,-808,0,-250,-419,10068
1404240485360758623,,10763,,1404240441,526070117,'',760,16536,-812,-33,-267,-415,10079
1404240485361190848,,10764,,1404240441,549798965,'',840,16560,-728,7,-251,-431,10062
1404240485410211168,,10765,,1404240441,573311090,'',748,16608,-956,-3,-261,-405,10079
1404240485410466412,,10766,,1404240441,596868038,'',788,16484,-988,0,-258,-419,10068
1404240485459607506,,10767,,1404240441,619230985,'',788,16472,-880,-27,-275,-401,10068
1404240485459901995,,10768,,1404240441,643105983,'',700,16408,-932,-17,-252,-392,10068
1404240485460200954,,10769,,1404240441,665710926,'',696,16520,-836,-64,-284,-419,10068
1404240485507653010,,10770,,1404240441,689194917,'',820,16532,-876,-8,-267,-414,10079
1404240485507919311,,10771,,1404240441,711179018,'',712,16528,-836,1,-278,-419,10073
1404240485553676901,,10772,,1404240441,734606027,'',808,16468,-684,9,-274,-414,10068
1404240485554283370,,10773,,1404240441,757940053,'',784,16556,-812,19,-299,-420,10073
1404240485602419952,,10774,,1404240441,780920028,'',780,16540,-828,-9,-268,-401,10073
1404240485602630444,,10775,,1404240441,804217100,'',700,16528,-752,0,-258,-411,10068
1404240485602832618,,10776,,1404240441,828141927,'',757,-258,-258,-258,-258,-258,10068
1404240485649817339,,10777,,1404240441,852129936,'',868,16512,-756,-1,-297,-399,10068
1404240485650071440,,10778,,1404240441,874691009,'',796,16480,-820,-14,-257,-406,10068
1404240485697660920,,10779,,1404240441,899890899,'',680,16528,-1048,-16,-257,-405,10068
1404240485697927039,,10780,,1404240441,923270940,'',780,16440,-860,-20,-256,-422,10062
1404240485743917365,,10781,,1404240441,946711063,'',852,16632,-864,-14,-253,-396,10068
1404240485744278125,,10782,,1404240441,970628023,'',764,16528,-744,-28,-282,-395,10068
1404240485806815514,,10783,,1404240441,994138002,'',772,16464,-872,-23,-252,-405,10062
1404240485807039359,,10784,,1404240442,17765045,'',836,16524,-848,-6,-263,-414,10068
1404240485807284419,,10785,,1404240442,40071964,'',760,16456,-956,0,-241,-411,10068
1404240485850381085,,10786,,1404240442,63601970,'',720,16512,-612,3,-261,-385,10062
1404240485851525489,,10787,,1404240442,87263107,'',788,16448,-876,-35,-272,-396,10073
1404240485951232222,,10788,,1404240442,110166072,'',784,16552,-912,-2,-267,-417,10062
1404240485951558211,,10789,,1404240442,133631944,'',804,16524,-872,-13,-273,-421,10062
1404240485984628021,,10790,,1404240442,157712936,'',700,16520,-944,-12,-245,-426,10073
1404240485984656126,,10791,,1404240442,179945945,'',812,16532,-972,1,-245,-433,10068
1404240485984664344,,10792,,1404240442,204386949,'',816,16572,-808,-12,-243,-395,10068
1404240486040332805,,10793,,1404240442,227519035,'',716,16628,-904,20,-260,-410,10073
1404240486040354574,,10794,,1404240442,250869989,'',788,16524,-892,-40,-254,-421,10068
1404240486112506298,,10795,,1404240442,274871110,'',756,16592,-992,2,-261,-403,10073
1404240486112528176,,10796,,1404240442,299069881,'',748,16524,-848,-20,-271,-410,10068
1404240486160780812,,10797,,1404240442,323528051,'',716,16524,-904,23,-269,-413,10057
1404240486160803487,,10798,,1404240442,346549987,'',892,16548,-764,3,-243,-404,10063
1404240486208273193,,10799,,1404240442,369666099,'',672,16516,-812,-19,-281,-403,10073
1404240486208293721,,10800,,1404240442,392812967,'',828,16560,-1056,-25,-248,-406,10068
1404240486208304437,,10801,,1404240442,415074110,'',788,16528,-916,11,-276,-403,10062
1404240486256472009,,10802,,1404240442,438463926,'',740,16552,-768,-13,-269,-408,10073
1404240486256760556,,10803,,1404240442,462065935,'',776,16520,-920,-33,-283,-417,10079
1404240486304551140,,10804,,1404240442,484795093,'',708,16596,-980,-5,-264,-417,10068
1404240486304822249,,10805,,1404240442,508359909,'',704,16436,-832,-9,-270,-394,10068
1404240486350211852,,10806,,1404240442,532879114,'',788,16544,-972,-19,-273,-434,10073
1404240486350407922,,10807,,1404240442,556600093,'',832,16548,-940,9,-272,-436,10079
1404240486350656933,,10808,,1404240442,579649925,'',812,16480,-1060,7,-260,-415,10062
1404240486399323541,,10809,,1404240442,603629112,'',696,16544,-960,-7,-247,-381,10068
1404240486399646876,,10810,,1404240442,626718997,'',700,16556,-908,-9,-254,-419,10068
1404240486445132414,,10811,,1404240442,650258064,'',752,16512,-780,-26,-284,-417,10073
1404240486445371436,,10812,,1404240442,672841072,'',848,16520,-840,-39,-268,-412,10073
1404240486513278143,,10813,,1404240442,695559978,'',744,16492,-724,23,-269,-387,10073
1404240486513532836,,10814,,1404240442,719039916,'',812,16600,-780,-9,-247,-416,10068
1404240486559307949,,10815,,1404240442,742887020,'',816,16472,-852,-6,-279,-408,10073
1404240486559595256,,10816,,1404240442,766520023,'',684,16444,-856,-19,-252,-431,10068
1404240486559612552,,10817,,1404240442,790071964,'',852,16536,-684,-33,-251,-386,10062
1404240486599996270,,10818,,1404240442,814143896,'',672,16536,-896,-16,-280,-417,10068
1404240486646070936,,10819,,1404240442,838357925,'',764,16556,-752,-5,-265,-432,10073
1404240486646216492,,10820,,1404240442,862607955,'',820,16444,-712,-34,-277,-407,10073
1404240486646432542,,10821,,1404240442,884864091,'',836,16544,-808,-9,-268,-409,10068
1404240486694131348,,10822,,1404240442,908906936,'',844,16548,-868,-24,-262,-394,10068
1404240486694365266,,10823,,1404240442,931741952,'',756,16500,-780,0,-266,-409,10068
1404240486763123196,,10824,,1404240442,954349994,'',712,16492,-908,-3,-270,-419,10073
1404240486763459468,,10825,,1404240442,976782083,'',828,16552,-804,-15,-263,-395,10068
1404240486871615152,,10826,,1404240443,2265930,'',836,16520,-748,-27,-264,-409,10073
1404240486872038565,,10827,,1404240443,24300098,'',664,16468,-904,0,-251,-415,10073
1404240486872297344,,10828,,1404240443,47199964,'',828,16532,-952,-4,-272,-402,10073
1404240486880056171,,10829,,1404240443,71034908,'',812,16556,-688,-3,-275,-439,10073
1404240486880412128,,10830,,1404240443,93787908,'',716,16468,-816,-15,-250,-397,10068
1404240486930720851,,10831,,1404240443,116837024,'',728,16620,-756,11,-272,-393,10073
1404240486930741323,,10832,,1404240443,140393972,'',716,16628,-836,-26,-272,-397,10068
1404240486990019941,,10833,,1404240443,164604902,'',736,16500,-936,8,-255,-419,10073
1404240486990035965,,10834,,1404240443,187555074,'',916,16488,-712,-4,-276,-414,10079
1404240487037126379,,10835,,1404240443,211318016,'',740,16520,-696,3,-253,-413,10073
1404240487037148042,,10836,,1404240443,234955072,'',820,16508,-980,-24,-265,-411,10073
1404240487037159556,,10837,,1404240443,257452964,'',744,16564,-760,-20,-277,-421,10068
1404240487083363902,,10838,,1404240443,279563903,'',852,16528,-812,7,-278,-404,10068
1404240487083386683,,10839,,1404240443,304299116,'',788,16496,-864,-16,-270,-404,10068
1404240487183782638,,10840,,1404240443,328433036,'',744,16532,-920,-10,-276,-399,10073
1404240487183801154,,10841,,1404240443,351346015,'',716,16512,-860,7,-299,-420,10073
1404240487235619741,,10842,,1404240443,375391960,'',728,16456,-844,-26,-269,-412,10073
1404240487236083665,,10843,,1404240443,398602962,'',700,16516,-856,-37,-274,-390,10068
1404240487236722778,,10844,,1404240443,421545982,'',824,16488,-932,-14,-275,-409,10063
1404240487280926478,,10845,,1404240443,444629907,'',784,16492,-820,-6,-262,-398,10068
1404240487281216564,,10846,,1404240443,468189001,'',728,16576,-808,-8,-269,-413,10073
1404240487325840528,,10847,,1404240443,490648031,'',700,16512,-792,8,-254,-425,10068
1404240487326091419,,10848,,1404240443,514213085,'',744,16492,-924,7,-288,-409,10068
1404240487374347525,,10849,,1404240443,537863016,'',856,16484,-788,16,-272,-396,10062
1404240487374490169,,10850,,1404240443,560317039,'',640,16472,-992,-4,-273,-425,10068
1404240487374687491,,10851,,1404240443,583338022,'',848,16492,-828,-20,-252,-413,10073
1404240487424692015,,10852,,1404240443,607459068,'',692,16620,-860,6,-253,-422,10073
1404240487424938856,,10853,,1404240443,630913972,'',784,16532,-816,-19,-231,-407,10073
1404240487505972913,,10854,,1404240443,654275894,'',812,16512,-812,-12,-265,-392,10079
1404240487506217824,,10855,,1404240443,677916049,'',640,16528,-776,-20,-279,-407,10068
1404240487573271650,,10856,,1404240443,700834989,'',844,16572,-816,-5,-263,-421,10068
1404240487573638989,,10857,,1404240443,724539995,'',904,16544,-832,0,-256,-411,10073
1404240487620770199,,10858,,1404240443,747667074,'',772,16592,-776,-9,-259,-421,10062
1404240487620921758,,10859,,1404240443,772068977,'',756,16484,-792,-13,-276,-410,10073
1404240487621130970,,10860,,1404240443,795299053,'',728,16560,-1004,11,-273,-413,10079
1404240487675348696,,10861,,1404240443,819186925,'',676,16580,-768,8,-269,-393,10062
1404240487675626995,,10862,,1404240443,843090057,'',764,16524,-788,-1,-262,-395,10068
1404240487722381656,,10863,,1404240443,865786075,'',692,16512,-828,-26,-247,-403,10068
1404240487722592418,,10864,,1404240443,890230894,'',792,16460,-812,-24,-276,-413,10062
1404240487768542667,,10865,,1404240443,914567947,'',780,16520,-752,-34,-275,-424,10073
1404240487768705880,,10866,,1404240443,938481092,'',768,16536,-908,-38,-263,-399,10062
1404240487768911596,,10867,,1404240443,960865974,'',776,16580,-788,-22,-263,-407,10073
1404240487827853835,,10868,,1404240443,983824968,'',816,16576,-764,-8,-287,-401,10068
1404240487828082965,,10869,,1404240444,7389068,'',760,16552,-976,3,-253,-397,10068
1404240487876064541,,10870,,1404240444,29670953,'',760,16528,-788,0,-267,-389,10073
1404240487876297303,,10871,,1404240444,53621053,'',876,16456,-732,-6,-261,-416,10062
1404240487925084289,,10872,,1404240444,78027009,'',676,16592,-840,-21,-279,-394,10079
1404240487925922310,,10873,,1404240444,100924015,'',716,16556,-956,4,-261,-403,10062
1404240487926224225,,10874,,1404240444,123251914,'',800,16500,-920,1,-256,-416,10068
1404240487971234327,,10875,,1404240444,146270036,'',796,16456,-804,-53,-263,-416,10079
1404240487971493503,,10876,,1404240444,168864965,'',868,16540,-900,-15,-263,-423,10073
1404240488021499806,,10877,,1404240444,194190025,'',792,16524,-800,-16,-260,-405,10073
1404240488021773015,,10878,,1404240444,217122077,'',792,16452,-972,2,-242,-406,10073
1404240488066748319,,10879,,1404240444,240504980,'',768,16516,-892,1,-259,-404,10068
1404240488067496895,,10880,,1404240444,263217926,'',764,16484,-872,-1,-233,-407,10068
1404240488067941274,,10881,,1404240444,285456895,'',880,16552,-856,7,-263,-428,10068
1404240488116797559,,10882,,1404240444,309859991,'',768,16504,-816,-25,-284,-413,10073
1404240488117125432,,10883,,1404240444,333462953,'',712,16560,-720,17,-244,-418,10073
1404240488164188637,,10884,,1404240444,356705904,'',812,16568,-892,-14,-270,-405,10073
1404240488164443841,,10885,,1404240444,380215883,'',820,16544,-776,-18,-269,-418,10073
1404240488224242264,,10886,,1404240444,403832912,'',636,16508,-864,-18,-275,-420,10068
1404240488224515887,,10887,,1404240444,427768945,'',804,16560,-788,-14,-246,-418,10068
1404240488303266980,,10888,,1404240444,450882911,'',716,16480,-728,-28,-266,-422,10073
1404240488303283034,,10889,,1404240444,475440025,'',636,16464,-812,-27,-287,-416,10062
1404240488303290781,,10890,,1404240444,498209953,'',752,16516,-872,-17,-255,-435,10073
1404240488345252651,,10891,,1404240444,521538019,'',752,16448,-880,-15,-264,-409,10073
1404240488345269351,,10892,,1404240444,545092105,'',704,16492,-812,-18,-267,-413,10068
1404240488392690734,,10893,,1404240444,568093061,'',868,16484,-920,3,-259,-417,10068
1404240488392713747,,10894,,1404240444,590720891,'',736,16504,-836,17,-286,-404,10062
1404240488392725416,,10895,,1404240444,614207983,'',796,16484,-716,-15,-269,-408,10062
1404240488443149589,,10896,,1404240444,638286113,'',764,16568,-808,-36,-229,-413,10068
1404240488443171655,,10897,,1404240444,660887002,'',772,16480,-744,-23,-246,-404,10068
1404240488490298295,,10898,,1404240444,685736894,'',868,16524,-720,-19,-273,-415,10068
1404240488490320323,,10899,,1404240444,710208892,'',724,16552,-796,-19,-255,-389,10073
1404240488536541164,,10900,,1404240444,732600927,'',704,16460,-708,2,-289,-423,10062
1404240488537713014,,10901,,1404240444,756578922,'',736,16348,-740,-3,-274,-413,10068
1404240488586022260,,10902,,1404240444,780848026,'',848,16564,-776,-23,-271,-412,10068
1404240488586280303,,10903,,1404240444,804119110,'',772,16560,-880,-18,-291,-408,10068
1404240488636279183,,10904,,1404240444,828177928,'',768,16608,-744,-9,-273,-404,10068
1404240488637599647,,10905,,1404240444,851650953,'',704,16468,-948,-16,-260,-404,10073
1404240488638863020,,10906,,1404240444,874218940,'',740,16520,-948,-20,-277,-422,10062
1404240488682648721,,10907,,1404240444,898802995,'',940,16540,-856,-13,-275,-405,10062
1404240488682911158,,10908,,1404240444,921948909,'',760,16560,-796,-28,-242,-408,10062
1404240488742888731,,10909,,1404240444,945493936,'',664,16580,-764,-3,-286,-415,10068
1404240488743200795,,10910,,1404240444,968168973,'',660,16468,-844,-23,-271,-405,10068
1404240488790855062,,10911,,1404240444,991481065,'',760,16496,-692,6,-247,-418,10068
1404240488791082533,,10912,,1404240445,15444993,'',800,16624,-848,-13,-253,-399,10068
1404240488791276861,,10913,,1404240445,39227962,'',740,16568,-880,-47,-282,-404,10068
1404240488838648409,,10914,,1404240445,62077045,'',732,16508,-880,5,-273,-409,10073
1404240488838941043,,10915,,1404240445,86051940,'',760,16520,-880,-33,-261,-407,10073
1404240488884479107,,10916,,1404240445,111502885,'',664,16604,-808,-15,-253,-406,10068
1404240488884875666,,10917,,1404240445,134221076,'',816,16464,-1036,-6,-267,-396,10073
1404240488960986297,,10918,,1404240445,157633066,'',828,16480,-944,1,-234,-396,10073
1404240488961192519,,10919,,1404240445,182020902,'',788,16536,-816,-17,-241,-414,10068
1404240489011164793,,10920,,1404240445,205252885,'',860,16588,-972,-36,-239,-423,10073
1404240489011308718,,10921,,1404240445,228740930,'',748,16608,-876,-30,-258,-401,10068
1404240489011544058,,10922,,1404240445,251818895,'',716,16472,-916,-16,-278,-421,10073
1404240489056678631,,10923,,1404240445,274818897,'',756,16520,-956,-28,-281,-420,10068
1404240489056933163,,10924,,1404240445,297614097,'',888,16440,-904,-20,-276,-398,10068
1404240489123214717,,10925,,1404240445,323672056,'',724,16544,-932,-26,-284,-411,10073
1404240489123346015,,10926,,1404240445,347338914,'',780,16556,-944,-34,-298,-395,10073
1404240489123530341,,10927,,1404240445,370243072,'',772,16536,-860,14,-274,-411,10068
1404240489173668967,,10928,,1404240445,394398927,'',788,16448,-724,-10,-268,-424,10068
1404240489173686154,,10929,,1404240445,417984008,'',788,16452,-832,18,-248,-411,10073
1404240489228680213,,10930,,1404240445,441704988,'',696,16524,-804,-32,-267,-411,10073
1404240489228697423,,10931,,1404240445,463993072,'',760,16544,-872,1,-257,-406,10073
1404240489271502970,,10932,,1404240445,488393068,'',732,16596,-804,-5,-262,-415,10073
1404240489271551902,,10933,,1404240445,511023044,'',704,16436,-884,5,-265,-393,10073
1404240489271567847,,10934,,1404240445,534396886,'',792,16468,-868,-6,-259,-396,10068
1404240489317999037,,10935,,1404240445,558731079,'',768,16484,-848,-12,-274,-425,10073
1404240489318021798,,10936,,1404240445,581722021,'',696,16588,-840,-11,-283,-406,10062
1404240489383329299,,10937,,1404240445,606945991,'',772,16576,-892,-12,-254,-403,10073
1404240489383348606,,10938,,1404240445,630347013,'',648,16440,-788,-17,-280,-420,10073
1404240489459565730,,10939,,1404240445,653450012,'',692,16520,-996,-18,-249,-425,10068
1404240489459593928,,10940,,1404240445,675184965,'',844,16576,-840,3,-282,-412,10068
1404240489539226218,,10941,,1404240445,699243068,'',776,16516,-864,-19,-272,-411,10073
1404240489539403947,,10942,,1404240445,724052906,'',784,16556,-1024,-14,-259,-422,10062
1404240489539616829,,10943,,1404240445,747891902,'',832,16476,-764,-16,-267,-395,10068
1404240489587233636,,10944,,1404240445,769830942,'',776,16552,-912,7,-280,-402,10057
1404240489587492885,,10945,,1404240445,794305086,'',812,16556,-772,-17,-276,-417,10068
1404240489636169015,,10946,,1404240445,818916082,'',708,16576,-920,-7,-256,-427,10073
1404240489636478354,,10947,,1404240445,843759059,'',740,16524,-920,-26,-255,-417,10073
1404240489684481846,,10948,,1404240445,866765022,'',720,16572,-904,-12,-272,-409,10073
1404240489684723674,,10949,,1404240445,891552925,'',708,16508,-828,-28,-263,-411,10073
1404240489730830480,,10950,,1404240445,916049957,'',760,16576,-880,-16,-271,-395,10068
1404240489731207600,,10951,,1404240445,939870119,'',812,16580,-884,-24,-257,-417,10068
1404240489777174767,,10952,,1404240445,962518930,'',660,16516,-800,-8,-260,-414,10073
1404240489777347919,,10953,,1404240445,985758066,'',808,16544,-816,-20,-269,-419,10068
1404240489777564507,,10954,,1404240446,9916067,'',868,16436,-728,-19,-266,-418,10073
1404240489822366905,,10955,,1404240446,33693075,'',700,16580,-704,18,-249,-398,10073
1404240489822636891,,10956,,1404240446,57601928,'',780,16564,-764,-33,-257,-421,10079
1404240489871663963,,10957,,1404240446,80923080,'',748,16484,-840,-8,-266,-424,10079
1404240489871923032,,10958,,1404240446,104015111,'',756,16452,-880,-4,-262,-416,10079
1404240489935221300,,10959,,1404240446,126929998,'',904,16580,-808,5,-266,-416,10068
1404240489935368321,,10960,,1404240446,149593114,'',752,16544,-816,3,-252,-417,10068
1404240489935599260,,10961,,1404240446,172077894,'',796,16540,-892,-12,-261,-401,10073
1404240490060721507,,10962,,1404240446,196501970,'',900,16504,-744,-27,-271,-429,10079
1404240490060930694,,10963,,1404240446,220732927,'',752,16564,-844,-13,-270,-405,10068
1404240490111272542,,10964,,1404240446,244606971,'',840,16572,-868,-19,-259,-400,10068
1404240490111507335,,10965,,1404240446,267911911,'',888,16628,-720,-11,-267,-406,10068
1404240490111739496,,10966,,1404240446,291990995,'',756,16560,-864,0,-280,-410,10079
1404240490160766680,,10967,,1404240446,315807104,'',832,16484,-768,-7,-244,-406,10073
1404240490161053755,,10968,,1404240446,341402053,'',784,16588,-1056,-16,-276,-414,10062
1404240490221288865,,10969,,1404240446,364667892,'',868,16512,-1000,-22,-254,-403,10068
1404240490221617427,,10970,,1404240446,387434005,'',716,16584,-824,-25,-248,-413,10073
1404240490266221343,,10971,,1404240446,410377025,'',708,16604,-880,-10,-263,-395,10062
1404240490266464531,,10972,,1404240446,433157920,'',708,16512,-736,-8,-246,-423,10068
1404240490304488281,,10973,,1404240446,456892967,'',816,16616,-912,-16,-249,-400,10073
1404240490305020851,,10974,,1404240446,479486942,'',764,16480,-724,-11,-267,-410,10068
1404240490353252512,,10975,,1404240446,503350973,'',760,16548,-920,-19,-280,-413,10068
1404240490353551719,,10976,,1404240446,527225017,'',720,16588,-840,-8,-270,-404,10068
1404240490399305880,,10977,,1404240446,550391912,'',780,16540,-812,-14,-261,-426,10073
1404240490399499939,,10978,,1404240446,573481082,'',700,16552,-936,-15,-259,-413,10073
1404240490399759092,,10979,,1404240446,597012996,'',832,16548,-752,1,-273,-387,10068
1404240490444571061,,10980,,1404240446,621083974,'',808,16540,-940,-16,-269,-415,10079
1404240490444833181,,10981,,1404240446,644934892,'',816,16560,-720,-22,-271,-400,10062
1404240490494175448,,10982,,1404240446,668147087,'',772,16524,-972,-35,-257,-407,10068
1404240490494440256,,10983,,1404240446,691634893,'',592,16508,-856,-15,-256,-424,10062
1404240490543272561,,10984,,1404240446,718293905,'',852,16468,-740,-13,-272,-409,10068
1404240490543613842,,10985,,1404240446,741209983,'',792,16588,-840,-15,-243,-421,10073
1404240490588787902,,10986,,1404240446,765027046,'',736,16500,-652,-3,-285,-405,10062
1404240490588988529,,10987,,1404240446,787060976,'',884,16488,-876,-6,-265,-401,10073
1404240490589339680,,10988,,1404240446,810209035,'',804,16484,-836,-27,-282,-408,10073
1404240490645406297,,10989,,1404240446,834011077,'',708,16532,-836,-27,-272,-392,10068
1404240490645656056,,10990,,1404240446,857291936,'',784,16512,-848,-36,-286,-396,10062
1404240490692238015,,10991,,1404240446,880415916,'',724,16500,-856,-3,-267,-424,10073
1404240490692494916,,10992,,1404240446,903958082,'',716,16476,-876,-10,-248,-413,10078
1404240490742718558,,10993,,1404240446,928030014,'',836,16488,-876,-4,-270,-393,10073
1404240490743054486,,10994,,1404240446,951009035,'',820,16552,-796,-9,-278,-413,10068
1404240490791101088,,10995,,1404240446,973949909,'',888,16608,-792,-10,-257,-428,10062
1404240490791271568,,10996,,1404240446,998627901,'',812,16508,-800,-24,-277,-426,10068
1404240490791464320,,10997,,1404240447,22310018,'',724,16540,-888,4,-267,-413,10073
1404240490936445057,,10998,,1404240447,46267032,'',832,16540,-864,-13,-266,-413,10062
1404240490936671184,,10999,,1404240447,69096088,'',844,16564,-904,-10,-291,-410,10068
1404240491007268070,,11000,,1404240447,92515945,'',816,16476,-1016,0,-255,-422,10062
1404240491007415565,,11001,,1404240447,115721940,'',748,16540,-728,-12,-278,-413,10062
1404240491007621024,,11002,,1404240447,140532970,'',872,16536,-840,25,-256,-409,10068
1404240491088608078,,11003,,1404240447,164362907,'',788,16548,-736,-27,-256,-409,10068
1404240491088835329,,11004,,1404240447,186579942,'',724,16512,-892,-7,-263,-414,10073
1404240491133969758,,11005,,1404240447,212124109,'',832,16504,-784,-30,-262,-408,10068
1404240491134559341,,11006,,1404240447,234122991,'',788,16588,-708,9,-250,-415,10073
1404240491134746160,,11007,,1404240447,257550954,'',736,16500,-832,-9,-267,-417,10073
1404240491183250922,,11008,,1404240447,280230045,'',692,16520,-776,-28,-271,-435,10073
1404240491183520883,,11009,,1404240447,303530931,'',812,16552,-628,7,-290,-410,10073
1404240491220161725,,11010,,1404240447,329186916,'',740,16432,-964,-32,-240,-418,10079
1404240491220417718,,11011,,1404240447,352282047,'',772,16448,-880,8,-257,-395,10068
1404240491269156446,,11012,,1404240447,375494956,'',764,16512,-764,-10,-269,-431,10068
1404240491269468358,,11013,,1404240447,397625923,'',744,16516,-792,5,-253,-397,10079
1404240491315494968,,11014,,1404240447,422981023,'',856,16632,-920,1,-271,-400,10073
1404240491315749463,,11015,,1404240447,446523904,'',760,16512,-800,23,-247,-412,10068
1404240491361281781,,11016,,1404240447,468954086,'',700,16452,-872,12,-254,-410,10062
1404240491361459325,,11017,,1404240447,492136001,'',856,16576,-856,-12,-284,-434,10062
1404240491361674814,,11018,,1404240447,515326976,'',692,16496,-924,-13,-249,-414,10068
1404240491409458005,,11019,,1404240447,538470029,'',784,16456,-832,-6,-267,-407,10079
1404240491409721171,,11020,,1404240447,561594963,'',732,16476,-840,-3,-255,-416,10073
1404240491477864756,,11021,,1404240447,584121942,'',724,16588,-864,-24,-288,-419,10073
1404240491478137814,,11022,,1404240447,608520984,'',772,16500,-880,-13,-268,-405,10073
1404240491547427788,,11023,,1404240447,631689071,'',728,16508,-828,0,-258,-415,10079
1404240491547697530,,11024,,1404240447,654876947,'',724,16604,-916,-4,-277,-414,10079
1404240491594840918,,11025,,1404240447,677516937,'',784,16492,-820,-5,-258,-433,10073
1404240491595099396,,11026,,1404240447,700681924,'',680,16512,-860,-18,-286,-418,10062
1404240491595311700,,11027,,1404240447,726227998,'',728,16540,-784,-28,-237,-399,10068
1404240491641593226,,11028,,1404240447,750169992,'',756,16500,-860,-3,-267,-403,10068
1404240491642932075,,11029,,1404240447,773251056,'',732,16496,-984,-12,-284,-421,10068
1404240491690769228,,11030,,1404240447,796155929,'',720,16528,-884,-22,-289,-417,10073
1404240491691052699,,11031,,1404240447,819569110,'',892,16588,-840,-26,-254,-400,10073
1404240491738908500,,11032,,1404240447,844912052,'',732,16508,-820,-7,-282,-395,10062
1404240491740741423,,11033,,1404240447,868980884,'',832,16516,-816,-36,-267,-390,10068
1404240491784793901,,11034,,1404240447,891995906,'',792,16508,-852,-3,-270,-417,10073
1404240491784952833,,11035,,1404240447,915740966,'',788,16516,-920,-15,-236,-413,10068
1404240491785157592,,11036,,1404240447,937691926,'',800,16540,-988,7,-269,-408,10068
1404240491831121083,,11037,,1404240447,960086107,'',904,16508,-796,8,-268,-410,10068
1404240491831441228,,11038,,1404240447,982908964,'',736,16532,-812,-21,-276,-407,10073
1404240491880086822,,11039,,1404240448,6063938,'',728,16456,-824,-11,-275,-399,10073
1404240491880374459,,11040,,1404240448,31238079,'',792,16496,-824,-2,-273,-411,10073
1404240491926872310,,11041,,1404240448,56099891,'',732,16576,-832,-34,-275,-413,10068
1404240491927219265,,11042,,1404240448,79071044,'',764,16468,-732,-25,-254,-401,10068
1404240491972887377,,11043,,1404240448,101936101,'',728,16556,-764,-7,-265,-415,10079
1404240491973080619,,11044,,1404240448,126473903,'',736,16556,-968,-16,-234,-400,10068
1404240491973274385,,11045,,1404240448,150023937,'',780,16444,-884,-6,-272,-414,10068
1404240492063128795,,11046,,1404240448,173007011,'',768,16532,-920,-32,-268,-415,10079
1404240492063530640,,11047,,1404240448,196150064,'',684,16432,-912,-8,-273,-402,10062
1404240492094579130,,11048,,1404240448,220206975,'',768,16552,-880,-12,-274,-410,10068
1404240492094851497,,11049,,1404240448,244970083,'',672,16560,-820,-26,-266,-426,10073
1404240492178443434,,11050,,1404240448,268906116,'',764,16608,-808,-12,-249,-396,10068
1404240492178464251,,11051,,1404240448,292139053,'',804,16528,-820,-24,-255,-417,10073
1404240492224309638,,11052,,1404240448,315974950,'',708,16508,-780,-9,-280,-422,10068
1404240492224522556,,11053,,1404240448,339032888,'',820,16576,-852,-13,-269,-408,10068
1404240492224731862,,11054,,1404240448,362647056,'',764,16616,-912,-32,-264,-418,10062
1404240492272337924,,11055,,1404240448,384762048,'',756,16524,-760,-1,-263,-387,10062
1404240492272591869,,11056,,1404240448,407732963,'',788,16564,-876,-16,-263,-406,10062
1404240492319789516,,11057,,1404240448,433083057,'',712,16492,-1012,9,-240,-412,10068
1404240492320067051,,11058,,1404240448,456415891,'',712,16508,-920,-21,-277,-424,10073
1404240492369194850,,11059,,1404240448,480869054,'',828,16484,-776,-5,-280,-405,10068
1404240492369568012,,11060,,1404240448,503495931,'',808,16460,-800,-19,-279,-409,10073
1404240492416858091,,11061,,1404240448,526834964,'',724,16516,-840,9,-291,-390,10068
1404240492417033021,,11062,,1404240448,550853967,'',792,16480,-896,-2,-259,-411,10073
1404240492417228318,,11063,,1404240448,574189901,'',776,16508,-820,-17,-250,-413,10062
1404240492477175103,,11064,,1404240448,597074031,'',784,16512,-840,-15,-290,-417,10068
1404240492477421114,,11065,,1404240448,621556043,'',764,16512,-1008,-22,-289,-419,10073
1404240492543241128,,11066,,1404240448,646023035,'',676,16532,-940,20,-264,-408,10068
1404240492543456960,,11067,,1404240448,668311119,'',788,16492,-888,7,-267,-417,10062
1404240492595441700,,11068,,1404240448,691206932,'',812,16568,-864,-17,-268,-412,10068
1404240492595696685,,11069,,1404240448,716383934,'',680,16560,-928,-29,-273,-423,10068
1404240492595949933,,11070,,1404240448,738830089,'',716,16528,-880,9,-254,-415,10068
1404240492640000992,,11071,,1404240448,762763023,'',732,16592,-820,-2,-275,-421,10068
1404240492640263927,,11072,,1404240448,785134077,'',748,16548,-856,-35,-259,-422,10068
1404240492687561249,,11073,,1404240448,807080030,'',812,16456,-804,5,-243,-411,10062
1404240492687886833,,11074,,1404240448,832231998,'',800,16520,-768,-17,-267,-421,10073
1404240492759666482,,11075,,1404240448,857271909,'',704,16894,-258,-258,-258,-258,10084
1404240492759918356,,11076,,1404240448,880065917,'',836,16472,-856,10,-246,-415,10068
1404240492808670952,,11077,,1404240448,903183937,'',732,16608,-756,-27,-269,-422,10068
1404240492808810064,,11078,,1404240448,928766012,'',844,16476,-856,-13,-263,-422,10062
1404240492809000164,,11079,,1404240448,952976942,'',812,16524,-744,-19,-259,-405,10079
1404240492854960009,,11080,,1404240448,975987911,'',800,16532,-876,-14,-264,-411,10079
1404240492855401866,,11081,,1404240448,998178958,'',856,16564,-836,-8,-275,-387,10073
1404240492924942534,,11082,,1404240449,22247076,'',768,16480,-836,-17,-239,-396,10062
1404240492925233706,,11083,,1404240449,46830892,'',720,16548,-772,-19,-241,-396,10073
1404240492970432094,,11084,,1404240449,69847106,'',752,16512,-832,1,-269,-416,10057
1404240492970686011,,11085,,1404240449,92389106,'',744,16516,-812,-34,-267,-431,10073
1404240493019286608,,11086,,1404240449,115386962,'',716,16388,-868,1,-264,-397,10068
1404240493019434127,,11087,,1404240449,140147924,'',860,16556,-916,-13,-280,-426,10068
1404240493019679818,,11088,,1404240449,163327932,'',696,16520,-876,-38,-250,-420,10073
1404240493119248128,,11089,,1404240449,186336994,'',852,16496,-688,17,-280,-408,10073
1404240493119661705,,11090,,1404240449,208663940,'',848,16492,-784,-21,-245,-420,10068
1404240493155261530,,11091,,1404240449,233200073,'',772,16480,-736,-32,-264,-392,10079
1404240493155291678,,11092,,1404240449,256927967,'',816,16512,-800,10,-270,-407,10073
1404240493201414890,,11093,,1404240449,279369115,'',816,16548,-756,1,-270,-411,10068
1404240493201438000,,11094,,1404240449,301940917,'',756,16496,-700,-5,-252,-405,10078
1404240493249439461,,11095,,1404240449,326195955,'',716,16532,-916,-34,-235,-404,10062
1404240493249461168,,11096,,1404240449,351342916,'',784,16524,-920,-7,-239,-417,10073
1404240493249472553,,11097,,1404240449,374766111,'',736,16536,-840,-54,-269,-419,10068
1404240493295836531,,11098,,1404240449,397569894,'',820,16576,-872,-3,-255,-428,10073
1404240493296207989,,11099,,1404240449,421358108,'',768,16516,-772,10,-228,-405,10073
1404240493344010719,,11100,,1404240449,444855928,'',768,16476,-816,18,-271,-369,10073
1404240493344169908,,11101,,1404240449,466798067,'',816,16504,-984,3,-237,-423,10073
1404240493390680928,,11102,,1404240449,489829063,'',684,16540,-864,-14,-262,-424,10073
1404240493390702982,,11103,,1404240449,512391090,'',696,16488,-748,-13,-260,-420,10073
1404240493391062038,,11104,,1404240449,536097049,'',736,16576,-908,-30,-263,-415,10062
1404240493440344996,,11105,,1404240449,560122966,'',656,16512,-880,-14,-267,-405,10073
1404240493440645893,,11106,,1404240449,582732915,'',796,16448,-840,-18,-243,-418,10073
1404240493500199327,,11107,,1404240449,605802059,'',728,16544,-808,-11,-276,-429,10068
1404240493500477569,,11108,,1404240449,631158113,'',676,16516,-780,-41,-269,-426,10068
1404240493545332615,,11109,,1404240449,654668092,'',700,16524,-792,0,-262,-391,10068
1404240493545353010,,11110,,1404240449,677352905,'',736,16448,-800,-27,-265,-422,10062
1404240493625720633,,11111,,1404240449,700619935,'',656,16544,-828,18,-259,-442,10068
1404240493625927571,,11112,,1404240449,725645065,'',880,16472,-1016,-58,-276,-418,10073
1404240493676201588,,11113,,1404240449,750361919,'',756,16608,-848,-145,-295,-440,10068
1404240493676356789,,11114,,1404240449,775188922,'',768,16456,-784,-110,-255,-421,10062
1404240493676553450,,11115,,1404240449,798043966,'',772,16564,-780,-85,-260,-417,10073
1404240493773195339,,11116,,1404240449,820635080,'',748,16540,-900,30,-267,-395,10073
1404240493773215241,,11117,,1404240449,845079898,'',820,16576,-936,32,-273,-402,10062
1404240493817177479,,11118,,1404240449,868910074,'',772,16488,-988,-76,-266,-454,10073
1404240493817323973,,11119,,1404240449,891505002,'',624,16700,-628,81,-262,-450,10062
1404240493817533944,,11120,,1404240449,913871049,'',928,16500,-940,172,-246,-452,10062
1404240493866420055,,11121,,1404240449,939444065,'',328,16264,-1296,-533,-432,-169,10062
1404240493866780381,,11122,,1404240449,962800025,'',704,16352,-1092,-796,-511,-9,10073
1404240493916415006,,11123,,1404240449,986412048,'',1052,16608,-1044,-1088,-433,45,10079
1404240493916690758,,11124,,1404240450,9628057,'',984,16740,-844,-1215,-445,-194,10079
1404240493955246261,,11125,,1404240450,35680055,'',596,17984,-524,-843,-620,-357,10068
1404240493955503584,,11126,,1404240450,60530900,'',584,16672,-1060,-266,-1410,-921,10073
1404240494004177111,,11127,,1404240450,85341930,'',1284,17576,-1080,-303,-1652,-1225,10073
1404240494004449442,,11128,,1404240450,108513116,'',1968,17920,-856,0,-2186,-2277,10073
1404240494049124068,,11129,,1404240450,135195970,'',1584,17476,-1004,170,-2606,-3400,10068
1404240494049449247,,11130,,1404240450,160434961,'',756,16512,-1156,-90,-3206,-4659,10073
1404240494097037778,,11131,,1404240450,184535980,'',124,17256,-616,-387,-3211,-4772,10068
1404240494097280588,,11132,,1404240450,208892107,'',-368,16976,-380,-566,-3176,-4959,10073
1404240494177259816,,11133,,1404240450,235557079,'',-900,16788,16,-1209,-3005,-5264,10068
1404240494177508297,,11134,,1404240450,261696100,'',-1328,17124,-340,-2570,-2322,-5678,10062
1404240494223689344,,11135,,1404240450,286341905,'',-1468,17228,260,-3183,-1926,-6256,10068
1404240494223837899,,11136,,1404240450,310544013,'',-1692,17280,96,-3607,-1919,-7015,10073
1404240494224046707,,11137,,1404240450,338594913,'',-2108,17204,224,-4262,-2165,-8301,10062
1404240494271240337,,11138,,1404240450,365679979,'',-2732,16696,456,-4949,-2689,-10314,10073
1404240494271501634,,11139,,1404240450,390499114,'',-2500,17840,488,-4009,-3032,-10114,10073
1404240494317170185,,11140,,1404240450,415024995,'',-2728,17160,972,-3944,-3361,-9828,10079
1404240494317427300,,11141,,1404240450,441572904,'',-3696,15272,1972,-4937,-4031,-10462,10068
1404240494367394596,,11142,,1404240450,467253923,'',-4024,15348,1936,-5571,-4398,-10741,10068
1404240494367746217,,11143,,1404240450,492156982,'',-4140,15668,1520,-5792,-4814,-10797,10073
1404240494413662824,,11144,,1404240450,517250061,'',-5160,14684,2128,-5843,-5297,-10392,10073
1404240494413912247,,11145,,1404240450,544137001,'',-5616,14536,2652,-5770,-5741,-10156,10073
1404240494460926436,,11146,,1404240450,570451021,'',-5992,14344,2912,-5914,-6184,-10142,10068
1404240494461223714,,11147,,1404240450,595392942,'',-5884,13812,3408,-6036,-6474,-10052,10073
1404240494509182773,,11148,,1404240450,620085954,'',-6932,13740,4196,-6418,-6324,-9779,10068
1404240494509473976,,11149,,1404240450,646524906,'',-7108,13344,4328,-6157,-6226,-9506,10073
1404240494553924945,,11150,,1404240450,672568082,'',-7036,12696,4624,-6119,-6143,-9242,10068
1404240494554713839,,11151,,1404240450,697429895,'',-7552,12180,5736,-6171,-5930,-8639,10062
1404240494594093682,,11152,,1404240450,723084926,'',-7832,11836,5720,-6011,-6101,-8287,10079
1404240494594577751,,11153,,1404240450,749026060,'',-8540,11812,6768,-5916,-5987,-8077,10068
1404240494640936366,,11154,,1404240450,774790048,'',-8992,12540,6852,-5515,-5677,-7978,10068
1404240494641227354,,11155,,1404240450,799237966,'',-7900,11652,6336,-4310,-5839,-8078,10068
1404240494691262214,,11156,,1404240450,824647903,'',-8264,10848,7424,-4597,-6377,-7828,10068
1404240494691533686,,11157,,1404240450,851105928,'',-7696,10528,7584,-5057,-6941,-7805,10068
1404240494737304029,,11158,,1404240450,877161979,'',-7852,10136,7172,-5560,-7495,-7581,10078
1404240494737581903,,11159,,1404240450,901421070,'',-9596,8160,9568,-5380,-7343,-7736,10068
1404240494783169725,,11160,,1404240450,926578044,'',-8688,9736,8372,-5303,-7577,-8012,10062
1404240494783409567,,11161,,1404240450,951406002,'',-8072,9456,7832,-4766,-7509,-8323,10073
1404240494829131676,,11162,,1404240450,976826906,'',-8456,9316,8160,-4113,-7867,-8427,10073
1404240494829487460,,11163,,1404240451,1120090,'',-9352,8960,8476,-3989,-8023,-8423,10068
1404240494878162674,,11164,,1404240451,26161909,'',-8176,7884,9820,-3789,-8492,-8498,10062
1404240494878560960,,11165,,1404240451,51851034,'',-7860,6436,12484,-3744,-8208,-8705,10068
1404240494917133888,,11166,,1404240451,77939033,'',-7844,7404,9572,-3725,-7973,-8073,10073
1404240494917459638,,11167,,1404240451,103213071,'',-7772,8364,10200,-3828,-8163,-7877,10073
1404240494967205269,,11168,,1404240451,128602981,'',-8256,6300,11420,-3933,-8259,-7707,10073
1404240494967466705,,11169,,1404240451,154071092,'',-7520,6508,10668,-3960,-8100,-7306,10068
1404240495014624509,,11170,,1404240451,179677009,'',-9096,5548,10848,-3711,-7456,-5946,10073
