rosbagTimestamp,header,seq,stamp,secs,nsecs,frame_id,ax,ay,az,gx,gy,gz,depth
1404222682389588818,,587,,946684944,345612049,'',-16092,468,-1856,-97,-302,-420,0
1404222682389650241,,588,,946684944,361660957,'',-15964,384,-1808,-79,-290,-422,0
1404222682389677327,,589,,946684944,377395987,'',-15992,408,-1908,-83,-271,-414,0
1404222682443811679,,590,,946684944,394088983,'',-15964,500,-1900,-84,-273,-436,0
1404222682443971569,,591,,946684944,414034962,'',-15916,264,-2048,-95,-281,-409,0
1404222682444086247,,592,,946684944,435022950,'',-15916,496,-1976,-97,-254,-409,0
1404222682496115676,,593,,946684944,455831050,'',-15880,348,-1980,-104,-296,-415,0
1404222682496553705,,594,,946684944,473574042,'',-15976,416,-1956,-70,-288,-428,0
1404222682545715164,,595,,946684944,493994951,'',-15984,412,-2052,-77,-269,-416,0
1404222682545778990,,596,,946684944,514425039,'',-15980,344,-2036,-84,-277,-409,0
1404222682545827493,,597,,946684944,534747004,'',-15952,432,-1892,-76,-272,-422,0
1404222682601428074,,598,,946684944,555842995,'',-15980,412,-1880,-92,-291,-406,0
1404222682601567154,,599,,946684944,574031949,'',-15852,508,-1996,-110,-290,-420,0
1404222682601684322,,600,,946684944,593520045,'',-15876,424,-1892,-92,-283,-424,0
1404222682652587348,,601,,946684944,613906979,'',-15936,400,-1876,-93,-281,-424,0
1404222682652743525,,602,,946684944,636419057,'',-16020,424,-1816,-91,-301,-416,0
1404222682707234879,,603,,946684944,655434012,'',-16016,472,-1868,-93,-272,-410,0
1404222682708047141,,604,,946684944,674165010,'',-16020,424,-1908,-79,-268,-424,0
1404222682709028394,,605,,946684944,694090008,'',-15948,436,-2068,-95,-290,-429,0
1404222682759375351,,606,,946684944,714339971,'',-16000,404,-1788,-85,-278,-425,0
1404222682760376873,,607,,946684944,734590053,'',-16004,472,-1816,-88,-293,-426,0
1404222682760486518,,608,,946684944,755223035,'',-15968,392,-1912,-84,-292,-425,0
1404222682811838393,,609,,946684944,774055957,'',-16012,492,-1688,-77,-273,-443,0
1404222682812034078,,610,,946684944,794342994,'',-16040,284,-1956,-107,-289,-420,0
1404222682864924836,,611,,946684944,814309000,'',-15980,400,-2028,-70,-273,-422,0
1404222682865018482,,612,,946684944,834375023,'',-15928,396,-1852,-88,-271,-410,0
1404222682865091702,,613,,946684944,854555010,'',-16032,336,-1976,-83,-284,-407,0
1404222682918074380,,614,,946684944,874379038,'',-15960,404,-2024,-103,-290,-421,0
1404222682918289340,,615,,946684944,894341945,'',-16068,304,-1844,-72,-274,-411,0
1404222682918828317,,616,,946684944,913895010,'',-15912,424,-1888,-87,-273,-413,0
1404222682972718416,,617,,946684944,934540033,'',-15916,416,-1928,-102,-274,-424,0
1404222682972918706,,618,,946684944,955412030,'',-15928,436,-1916,-93,-281,-418,0
1404222683025410021,,619,,946684944,974418997,'',-15952,376,-1844,-102,-279,-405,0
1404222683025511848,,620,,946684944,993700027,'',-15944,452,-1904,-92,-287,-419,0
1404222683025592104,,621,,946684945,14729976,'',-15948,360,-2020,-70,-291,-425,0
1404222683077667171,,622,,946684945,34873962,'',-16004,392,-1972,-104,-283,-413,0
1404222683077774222,,623,,946684945,55523991,'',-15972,432,-1884,-86,-286,-411,0
1404222683077853652,,624,,946684945,73722958,'',-15920,436,-2004,-84,-281,-426,0
1404222683130674533,,625,,946684945,93775987,'',-15940,336,-1916,-61,-300,-435,0
1404222683130780962,,626,,946684945,114367008,'',-15968,452,-1884,-82,-270,-399,0
1404222683182970475,,627,,946684945,137004971,'',-15964,432,-1872,-84,-267,-412,0
1404222683184004551,,628,,946684945,154517054,'',-15964,388,-1876,-86,-286,-2,0
1404222683184148944,,629,,946684945,174680948,'',-15884,404,-1868,-88,-291,-423,0
1404222683236014025,,630,,946684945,194414973,'',-16012,492,-1996,-61,-279,-412,0
1404222683237064925,,631,,946684945,213968992,'',-16028,344,-1944,-86,-285,-426,0
1404222683237604512,,632,,946684945,233626961,'',-16060,424,-1944,-85,-296,-413,0
1404222683288264656,,633,,946684945,256116032,'',-16056,412,-2004,-81,-267,-422,0
1404222683288979987,,634,,946684945,273849010,'',-16060,420,-1944,-89,-279,-419,0
1404222683342464291,,635,,946684945,294085979,'',-15884,420,-1856,-83,-301,-414,0
1404222683343050284,,636,,946684945,313887000,'',-15984,328,-1908,-96,-274,-410,0
1404222683343326083,,637,,946684945,333636045,'',-15912,392,-1940,-73,-262,-410,0
1404222683397594035,,638,,946684945,356227993,'',-15884,416,-2036,-83,-272,-410,0
1404222683398589403,,639,,946684945,373679041,'',-15840,268,-1780,-87,-237,-425,0
1404222683399090931,,640,,946684945,393599987,'',-15960,280,-1896,-94,-252,-426,0
1404222683449194040,,641,,946684945,414129018,'',-16008,356,-1992,-83,-294,-408,0
1404222683450482877,,642,,946684945,433645009,'',-15940,420,-1872,-82,-284,-418,0
1404222683502624629,,643,,946684945,456544995,'',-15924,352,-1956,-84,-262,-429,0
1404222683503186050,,644,,946684945,473634958,'',-15912,384,-1760,-85,-277,-420,0
1404222683503440454,,645,,946684945,493595957,'',-15976,356,-2016,-99,-289,-423,0
1404222683556523659,,646,,946684945,514132976,'',-15952,364,-1944,-78,-274,-395,0
1404222683557778911,,647,,946684945,534018993,'',-16024,1022,-258,-258,-258,-258,0
1404222683608406074,,648,,946684945,555575966,'',-15888,460,-1960,-80,-295,-416,0
1404222683609607434,,649,,946684945,574133992,'',-15916,352,-1844,-104,-285,-430,0
1404222683610319364,,650,,946684945,593706011,'',-16008,432,-1960,-81,-279,-433,0
1404222683661839054,,651,,946684945,614514946,'',-15956,400,-1944,-89,-286,-423,0
1404222683663329625,,652,,946684945,636209011,'',-16108,404,-1868,-72,-283,-417,0
1404222683664102606,,653,,946684945,655652046,'',-15828,436,-1988,-89,-265,-420,0
1404222683715106310,,654,,946684945,674649000,'',-15948,496,-2016,-80,-283,-421,0
1404222683716320642,,655,,946684945,694033026,'',-16008,420,-1900,-91,-293,-416,0
1404222683716936130,,656,,946684945,713580012,'',-15936,332,-1924,-81,-276,-419,0
1404222683770199104,,657,,946684945,734344005,'',-15920,408,-1952,-104,-277,-417,0
1404222683771363062,,658,,946684945,756217956,'',-15992,332,-1792,-103,-279,-412,0
1404222683823374589,,659,,946684945,774245977,'',-15940,352,-1992,-81,-292,-429,0
1404222683824529835,,660,,946684945,793993949,'',-16064,296,-1928,-71,-291,-409,0
1404222683825071278,,661,,946684945,813681006,'',-15968,356,-1960,-65,-286,-416,0
1404222683875382260,,662,,946684945,834128975,'',-15936,428,-1936,-81,-279,-429,0
1404222683876432893,,663,,946684945,856001019,'',-15984,448,-1812,-72,-294,-412,0
1404222683876916240,,664,,946684945,873764038,'',-15900,352,-1968,-73,-290,-433,0
1404222683928966945,,665,,946684945,894476056,'',-15928,328,-1932,-79,-269,-447,0
1404222683930241821,,666,,946684945,913728952,'',-15900,448,-2088,-79,-266,-410,0
1404222683983432172,,667,,946684945,933977961,'',-16064,400,-1936,-84,-276,-410,0
1404222683984601364,,668,,946684945,955314993,'',-15932,404,-1928,-85,-271,-419,0
1404222683985133101,,669,,946684945,973899006,'',-16036,404,-1976,-105,-255,-415,0
1404222684035613808,,670,,946684945,994040966,'',-15932,324,-1980,-97,-275,-418,0
1404222684036715844,,671,,946684946,13952970,'',-16044,444,-1868,-95,-293,-415,0
1404222684037200948,,672,,946684946,33700942,'',-15936,376,-1980,-92,-269,-427,0
1404222684088058879,,673,,946684946,55827021,'',-15988,380,-1960,-100,-285,-407,0
1404222684091535076,,674,,946684946,73716044,'',-15972,472,-1988,-93,-287,-414,0
1404222684140352164,,675,,946684946,94105005,'',-15932,404,-2000,-75,-292,-416,0
1404222684141393920,,676,,946684946,114261984,'',-15940,368,-1920,-104,-280,-416,0
1404222684141916185,,677,,946684946,135068058,'',-15920,440,-1896,-69,-275,-411,0
1404222684209868776,,678,,946684946,156525969,'',-15984,400,-1912,-71,-272,-415,0
1404222684210811597,,679,,946684946,174204945,'',-15932,404,-1940,-76,-274,-424,0
1404222684264343752,,680,,946684946,194728016,'',-16076,356,-2028,-75,-271,-416,0
1404222684264813798,,681,,946684946,213752985,'',-16048,396,-1736,-75,-267,-425,0
1404222684264920428,,682,,946684946,233922958,'',-16004,388,-1940,-90,-275,-431,0
1404222684265024005,,683,,946684946,255663990,'',-15884,416,-1936,-82,-255,-395,0
1404222684315710202,,684,,946684946,274253964,'',-15888,348,-1972,-62,-278,-414,0
1404222684316160184,,685,,946684946,293609976,'',-15976,416,-2004,-92,-297,-419,0
1404222684316437747,,686,,946684946,313508987,'',-15960,408,-1864,-85,-282,-409,0
1404222684368480160,,687,,946684946,333742022,'',-16048,380,-1824,-59,-289,-408,0
1404222684369839618,,688,,946684946,355790019,'',-15964,460,-2008,-84,-297,-421,0
1404222684422096503,,689,,946684946,374794006,'',-16004,400,-1784,-91,-285,-428,0
1404222684423203946,,690,,946684946,393638968,'',-15960,428,-1908,-83,-269,-422,0
1404222684423716716,,691,,946684946,413694024,'',-15948,368,-1868,-95,-282,-413,0
1404222684473664443,,692,,946684946,434087991,'',-15904,428,-1976,-93,-287,-433,0
1404222684474553033,,693,,946684946,454481005,'',-16012,388,-1992,-80,-289,-420,0
1404222684475034542,,694,,946684946,474277973,'',-15936,404,-1808,-81,-286,-421,0
1404222684526875120,,695,,946684946,493836998,'',-16024,368,-2040,-69,-302,-424,0
1404222684528154436,,696,,946684946,513587951,'',-15960,468,-1844,-83,-285,-413,0
1404222684579896194,,697,,946684946,533995985,'',-16096,404,-1832,-97,-287,-409,0
1404222684580998663,,698,,946684946,554576992,'',-16024,412,-1848,-94,-297,-418,0
1404222684581500034,,699,,946684946,573760032,'',-16060,420,-1976,-71,-306,-449,0
1404222684634663151,,700,,946684946,593994975,'',-15920,388,-2128,-94,-308,-402,0
1404222684635669895,,701,,946684946,613793015,'',-15988,416,-1864,-98,-281,-413,0
1404222684636305574,,702,,946684946,635287046,'',-15892,436,-2040,-81,-279,-409,0
1404222684691603335,,703,,946684946,655678987,'',-15972,440,-2056,-102,-292,-419,0
1404222684693153026,,704,,946684946,674862980,'',-15992,376,-1944,-95,-283,-411,0
1404222684744779880,,705,,946684946,694064021,'',-15964,408,-1912,-89,-288,-426,0
1404222684745360613,,706,,946684946,713624954,'',-15960,396,-1880,-93,-270,-416,0
1404222684745826988,,707,,946684946,733548998,'',-16028,400,-1988,-82,-280,-417,0
1404222684799425892,,708,,946684946,754801988,'',-16012,420,-2104,-68,-284,-419,0
1404222684800573733,,709,,946684946,773749947,'',-15940,352,-1972,-83,-280,-415,0
1404222684801074675,,710,,946684946,793723940,'',-15992,416,-1972,-78,-271,-428,0
1404222684850977011,,711,,946684946,814138054,'',-15880,432,-1896,-102,-283,-412,0
1404222684852033087,,712,,946684946,834018945,'',-16032,352,-2048,-102,-276,-423,0
1404222684904170777,,713,,946684946,854418039,'',-15988,508,-2024,-98,-273,-430,0
1404222684905324083,,714,,946684946,874222993,'',-15968,364,-2088,-100,-289,-421,0
1404222684905813583,,715,,946684946,893975973,'',-16024,384,-1880,-84,-288,-416,0
1404222684956475524,,716,,946684946,914069056,'',-16036,504,-1872,-61,-296,-424,0
1404222684958402399,,717,,946684946,933652997,'',-15912,320,-1892,-78,-288,-417,0
1404222684958950976,,718,,946684946,954496979,'',-15928,384,-1952,-72,-288,-422,0
1404222685008344147,,719,,946684946,975285053,'',-16048,388,-1972,-78,-283,-423,0
1404222685010045877,,720,,946684946,993649005,'',-15888,496,-1916,-87,-287,-426,0
1404222685061903346,,721,,946684947,15058994,'',-15876,388,-2008,-76,-297,-414,0
1404222685062861957,,722,,946684947,33656001,'',-15800,488,-1924,-74,-280,-413,0
1404222685063383162,,723,,946684947,54734945,'',-15996,492,-1912,-59,-282,-383,0
1404222685114871734,,724,,946684947,76014995,'',-15912,432,-1952,-81,-281,-393,0
1404222685115926337,,725,,946684947,93793988,'',-16024,396,-1868,-89,-272,-395,0
1404222685116521598,,726,,946684947,113680005,'',-15904,368,-1756,-81,-291,-428,0
1404222685166516843,,727,,946684947,135709047,'',-15936,408,-1908,-102,-278,-417,0
1404222685167860088,,728,,946684947,154814958,'',-15964,396,-1876,-92,-273,-431,0
1404222685218900196,,729,,946684947,176066040,'',-15924,444,-1772,-87,-279,-423,0
1404222685219869108,,730,,946684947,193784952,'',-15992,400,-1848,-73,-278,-404,0
1404222685220499043,,731,,946684947,213755965,'',-15936,404,-1836,-64,-274,-437,0
1404222685271686065,,732,,946684947,233922958,'',-16100,368,-1984,-87,-294,-420,0
1404222685272854361,,733,,946684947,254878044,'',-15884,388,-1796,-67,-278,-411,0
1404222685273358071,,734,,946684947,274762034,'',-15916,368,-1952,-79,-282,-432,0
1404222685325895463,,735,,946684947,294075012,'',-15928,488,-1864,-75,-310,-423,0
1404222685326720004,,736,,946684947,313853979,'',-16048,344,-1940,-258,-258,-258,0
1404222685378474042,,737,,946684947,334030032,'',-15980,428,-1784,-96,-294,-416,0
1404222685379302476,,738,,946684947,354959964,'',-16028,332,-1976,-64,-280,-421,0
1404222685379707031,,739,,946684947,374842047,'',-15952,480,-1876,-87,-277,-431,0
1404222685431255728,,740,,946684947,394291043,'',-15960,356,-1968,-78,-275,-408,0
1404222685432386025,,741,,946684947,413723945,'',-15936,432,-1944,-98,-284,-416,0
1404222685432918840,,742,,946684947,433575034,'',-15988,404,-2016,-90,-278,-431,0
1404222685484068803,,743,,946684947,454527974,'',-15936,304,-1916,-94,-281,-414,0
1404222685485345854,,744,,946684947,475200057,'',-15888,444,-1920,-258,-258,-258,0
1404222685536303056,,745,,946684947,494137048,'',-16016,356,-2076,-88,-288,-428,0
1404222685537128590,,746,,946684947,513659000,'',-15828,424,-1832,-70,-276,-410,0
1404222685537517300,,747,,946684947,533820033,'',-15960,416,-1696,-83,-311,-428,0
1404222685589108093,,748,,946684947,554849982,'',-16024,452,-1980,-83,-258,-423,0
1404222685590140557,,749,,946684947,575171947,'',-16020,380,-1956,-97,-278,-429,0
1404222685590674684,,750,,946684947,593655943,'',-15916,344,-2060,-81,-273,-401,0
1404222685642859305,,751,,946684947,614431023,'',-15912,460,-1908,-73,-288,-414,0
1404222685644070327,,752,,946684947,635581016,'',-15896,392,-2032,-86,-270,-414,0
1404222685695813075,,753,,946684947,654940009,'',-16068,304,-2012,-94,-295,-418,0
1404222685696958037,,754,,946684947,676077961,'',-15944,448,-2040,-71,-294,-416,0
1404222685697488185,,755,,946684947,693915963,'',-15988,436,-2052,-94,-267,-416,0
1404222685750940494,,756,,946684947,713747978,'',-15908,440,-1768,-72,-283,-406,0
1404222685752539789,,757,,946684947,733950972,'',-15948,432,-1980,-90,-293,-421,0
1404222685802364309,,758,,946684947,754853963,'',-15968,376,-1538,-258,-258,-258,0
1404222685803444155,,759,,946684947,774893999,'',-16008,368,-1916,-85,-274,-414,0
1404222685804146294,,760,,946684947,793612003,'',-16032,412,-1980,-96,-283,-432,0
1404222685856455756,,761,,946684947,814223051,'',-16016,376,-1912,-90,-290,-421,0
1404222685857592119,,762,,946684947,833850979,'',-15956,416,-1948,-83,-287,-416,0
1404222685858076556,,763,,946684947,854558944,'',-15980,408,-1840,-92,-281,-438,0
1404222685909995207,,764,,946684947,875445008,'',-15980,364,-1784,-71,-289,-431,0
1404222685911057140,,765,,946684947,894237995,'',-15880,368,-1836,-96,-293,-417,0
1404222685911566200,,766,,946684947,913597941,'',-15988,384,-1836,-81,-281,-423,0
1404222685963961981,,767,,946684947,933915972,'',-15988,384,-1836,-81,-281,-423,0
1404222685965344702,,768,,946684947,954846024,'',-15920,404,-1924,-82,-278,-423,0
1404222686016383030,,769,,946684947,975787997,'',-15972,468,-2108,-89,-274,-428,0
1404222686017387052,,770,,946684947,994292020,'',-16088,412,-1972,-103,-286,-430,0
1404222686017908736,,771,,946684948,13895988,'',-15984,432,-1948,-82,-295,-422,0
1404222686069000384,,772,,946684948,33946037,'',-15924,416,-2064,-94,-290,-408,0
1404222686070724296,,773,,946684948,54700970,'',-16048,412,-1904,-90,-286,-407,0
1404222686132737220,,774,,946684948,75997948,'',-15888,408,-1928,-83,-288,-419,0
1404222686133819574,,775,,946684948,93752026,'',-15968,400,-2028,-92,-283,-422,0
1404222686134202300,,776,,946684948,113618969,'',-15988,408,-1808,-84,-280,-419,0
1404222686134451902,,777,,946684948,135573029,'',-15988,432,-2040,-77,-273,-424,0
1404222686186074252,,778,,946684948,155606031,'',-15924,280,-2024,-85,-267,-415,0
1404222686187450723,,779,,946684948,176759004,'',-16008,400,-1848,-75,-294,-413,0
1404222686239015993,,780,,946684948,194205045,'',-15952,424,-1988,-83,-295,-514,0
1404222686240076555,,781,,946684948,213611960,'',-15968,444,-2036,-75,-270,-405,0
1404222686240807730,,782,,946684948,233587026,'',-15964,388,-1944,-82,-273,-422,0
1404222686281508130,,783,,946684948,255367040,'',-15960,448,-1796,-96,-281,-425,0
1404222686282700388,,784,,946684948,275279045,'',-16028,416,-1996,-86,-293,-410,0
1404222686334004425,,785,,946684948,295150041,'',-15944,460,-1896,-106,-302,-405,0
1404222686335674419,,786,,946684948,313840985,'',-15936,460,-2064,-81,-283,-409,0
1404222686336324476,,787,,946684948,334283947,'',-15904,432,-1768,-258,-258,-258,0
1404222686387837371,,788,,946684948,355375051,'',-15940,376,-1836,-70,-275,-422,0
1404222686389209652,,789,,946684948,373747944,'',-15940,400,-1960,-88,-299,-430,0
1404222686440920155,,790,,946684948,394852995,'',-16016,352,-1940,-103,-285,-397,0
1404222686442095683,,791,,946684948,414397954,'',-16012,368,-1884,-81,-284,-427,0
1404222686442569032,,792,,946684948,433902025,'',-16012,368,-1884,-81,-284,-427,0
1404222686504678565,,793,,946684948,455528974,'',-15840,472,-1944,-83,-260,-412,0
1404222686505026932,,794,,946684948,473692059,'',-15968,372,-2012,-73,-283,-415,0
1404222686505658824,,795,,946684948,495525002,'',-15836,396,-1944,-79,-267,-423,0
1404222686557975651,,796,,946684948,514219999,'',-15836,396,-1944,-79,-267,-423,0
1404222686558129936,,797,,946684948,533957958,'',-15916,400,-1856,-82,-293,-416,0
1404222686558413073,,798,,946684948,555009961,'',-15900,392,-1880,-79,-291,-435,0
1404222686611937991,,799,,946684948,574172973,'',-15976,388,-1968,-98,-274,-415,0
1404222686612634023,,800,,946684948,595579981,'',-15992,356,-1968,-80,-283,-418,0
1404222686613115204,,801,,946684948,613953948,'',-15992,356,-1968,-80,-283,-418,0
1404222686664972143,,802,,946684948,635113954,'',-15844,404,-1924,-83,-296,-421,0
1404222686665806854,,803,,946684948,655421972,'',-15880,336,-1792,-89,-280,-430,0
1404222686717526405,,804,,946684948,674873948,'',-16000,400,-1760,-90,-284,-402,0
1404222686718028803,,805,,946684948,695901036,'',-15972,480,-1812,-76,-293,-436,0
1404222686719784780,,806,,946684948,713616967,'',-15936,388,-1860,-93,-286,-411,0
1404222686770167829,,807,,946684948,733888030,'',-15936,388,-1860,-93,-286,-411,0
1404222686771254131,,808,,946684948,754901051,'',-15944,416,-1912,-96,-262,-404,0
1404222686771747469,,809,,946684948,773601055,'',-15964,420,-2076,-74,-290,-424,0
1404222686813832138,,810,,946684948,793949007,'',-16000,424,-1860,-69,-298,-419,0
1404222686815004902,,811,,946684948,814069032,'',-16088,388,-1956,-83,-260,-428,0
1404222686864804381,,812,,946684948,833874940,'',-15948,376,-2000,-72,-275,-418,0
1404222686866052944,,813,,946684948,854972958,'',-16108,276,-1816,-72,-297,-409,0
1404222686917217860,,814,,946684948,874287962,'',-15948,340,-1896,-86,-274,-432,0
1404222686918487863,,815,,946684948,895254015,'',-15960,340,-1824,-70,-280,-435,0
1404222686919031353,,816,,946684948,913697004,'',-15964,396,-2012,-75,-271,-416,0
1404222686971402924,,817,,946684948,934425950,'',-15980,420,-1964,-69,-287,-413,0
1404222686972670967,,818,,946684948,954902052,'',-15952,380,-2064,-88,-261,-406,0
1404222686973161604,,819,,946684948,973554015,'',-15988,412,-1880,-62,-293,-419,0
1404222687025057541,,820,,946684948,995820045,'',-16076,380,-2048,-89,-274,-427,0
1404222687026294486,,821,,946684949,15390038,'',-15924,324,-1712,-64,-276,-423,0
1404222687078576033,,822,,946684949,36069989,'',-15972,480,-1796,-82,-284,-414,0
1404222687079619179,,823,,946684949,55058002,'',-15960,404,-2044,-96,-287,-432,0
1404222687080110493,,824,,946684949,73776006,'',-16020,404,-1988,-69,-294,-425,0
1404222687130641652,,825,,946684949,94830989,'',-15944,444,-1832,-87,-282,-410,0
1404222687131262315,,826,,946684949,113881945,'',-15968,432,-1992,-72,-271,-419,0
1404222687132153769,,827,,946684949,135192990,'',-15952,392,-1996,-72,-275,-407,0
1404222687183335995,,828,,946684949,155393958,'',-15952,416,-2048,-89,-289,-410,0
1404222687184728886,,829,,946684949,174630045,'',-15944,460,-1964,-106,-299,-423,0
1404222687234847285,,830,,946684949,195176005,'',-16012,416,-2044,-85,-267,-406,0
1404222687235882277,,831,,946684949,213922977,'',-16032,428,-1900,-83,-297,-409,0
1404222687236501218,,832,,946684949,233831048,'',-15876,396,-1872,-82,-277,-418,0
1404222687287932044,,833,,946684949,255349993,'',-15984,336,-1776,-97,-292,-431,0
1404222687289075217,,834,,946684949,273973941,'',-15928,364,-1884,-103,-287,-422,0
1404222687289780618,,835,,946684949,294953942,'',-15996,340,-1888,-92,-300,-419,0
1404222687340510588,,836,,946684949,314435958,'',-15968,444,-1884,-81,-295,-440,0
1404222687341740213,,837,,946684949,333842992,'',-16028,396,-1940,-93,-264,-416,0
1404222687394145274,,838,,946684949,355350971,'',-15964,444,-1924,-76,-276,-406,0
1404222687395186583,,839,,946684949,373710989,'',-15940,440,-1928,-75,-285,-417,0
1404222687395710123,,840,,946684949,394837021,'',-16004,440,-1904,-84,-302,-425,0
1404222687446874877,,841,,946684949,414849996,'',-16000,388,-1928,-100,-291,-432,0
1404222687448046165,,842,,946684949,433887958,'',-15948,400,-1952,-80,-293,-421,0
1404222687491448562,,843,,946684949,454921960,'',-15964,404,-1916,-99,-303,-410,0
1404222687492659355,,844,,946684949,473726987,'',-16036,392,-1884,-71,-263,-408,0
1404222687493232797,,845,,946684949,494932055,'',-15888,448,-1896,-99,-263,-408,0
1404222687543232790,,846,,946684949,513692021,'',-15944,384,-1988,-75,-296,-427,0
1404222687543965112,,847,,946684949,533902049,'',-16096,404,-1976,-98,-288,-409,0
1404222687594925472,,848,,946684949,555433988,'',-15980,408,-1876,-88,-302,-425,0
1404222687595502874,,849,,946684949,573724031,'',-15932,404,-1744,-71,-272,-427,0
1404222687595788636,,850,,946684949,594828963,'',-16044,456,-1844,-86,-272,-417,0
1404222687648310063,,851,,946684949,614421963,'',-16008,376,-2048,-86,-282,-418,0
1404222687648911587,,852,,946684949,634147047,'',-16056,444,-1912,-83,-271,-413,0
1404222687649193394,,853,,946684949,656137943,'',-15932,440,-2060,-107,-299,-413,0
1404222687701310883,,854,,946684949,675151944,'',-15960,412,-1992,-100,-276,-416,0
1404222687702589553,,855,,946684949,694867014,'',-16024,396,-1816,-71,-278,-412,0
1404222687753293355,,856,,946684949,714488029,'',-15936,372,-1760,-74,-282,-411,0
1404222687754257859,,857,,946684949,734238028,'',-15980,480,-1900,-101,-288,-420,0
1404222687754727469,,858,,946684949,755125045,'',-15860,392,-1836,-92,-288,-429,0
1404222687805759372,,859,,946684949,773962974,'',-15932,368,-1876,-77,-295,-429,0
1404222687806778342,,860,,946684949,795449972,'',-15924,472,-1756,-97,-264,-433,0
1404222687807257082,,861,,946684949,813953042,'',-15952,384,-2012,-68,-275,-402,0
1404222687859721848,,862,,946684949,833843946,'',-15920,368,-1976,-66,-274,-422,0
1404222687861180817,,863,,946684949,855059027,'',-16052,404,-1824,-64,-292,-418,0
1404222687913732528,,864,,946684949,874112010,'',-16000,444,-1968,-81,-269,-410,0
1404222687914751562,,865,,946684949,895738959,'',-16036,424,-1904,-84,-273,-440,0
1404222687915225797,,866,,946684949,913851022,'',-15972,420,-1760,-96,-267,-406,0
1404222687966527623,,867,,946684949,934316039,'',-15872,344,-1900,-59,-285,-414,0
1404222687968628823,,868,,946684949,955122947,'',-16000,388,-1864,-87,-287,-422,0
1404222687969168075,,869,,946684949,973716020,'',-15948,340,-1964,-74,-281,-399,0
1404222688020428502,,870,,946684949,995782017,'',-16028,356,-2000,-71,-275,-416,0
1404222688021990767,,871,,946684950,14011979,'',-15908,332,-1864,-84,-289,-421,0
1404222688071869995,,872,,946684950,34317970,'',-16020,404,-1996,-65,-281,-426,0
1404222688073070973,,873,,946684950,54954051,'',-15828,380,-1940,-83,-296,-415,0
1404222688073548539,,874,,946684950,73879957,'',-15952,400,-1960,-89,-276,-414,0
1404222688125445988,,875,,946684950,95484972,'',-15960,416,-2012,-89,-290,-407,0
1404222688126623488,,876,,946684950,114246964,'',-16040,352,-2044,-83,-302,-415,0
1404222688178360314,,877,,946684950,134168028,'',-15912,392,-2004,-93,-294,-406,0
1404222688179422935,,878,,946684950,155796051,'',-15980,384,-1756,-84,-294,-406,0
1404222688179914032,,879,,946684950,174384951,'',-15960,388,-2112,-81,-289,-419,0
1404222688231153455,,880,,946684950,196097016,'',-15904,328,-1868,-86,-276,-420,0
1404222688232157424,,881,,946684950,213698983,'',-15992,448,-1836,-94,-284,-410,0
1404222688232904175,,882,,946684950,233829021,'',-15980,380,-1924,-64,-278,-417,0
1404222688285911902,,883,,946684950,255475997,'',-15952,384,-1932,-98,-294,-413,0
1404222688286914385,,884,,946684950,274003982,'',-15964,372,-1992,-101,-289,-418,0
1404222688329143944,,885,,946684950,296877980,'',-15920,400,-1816,-107,-286,-412,0
1404222688329345699,,886,,946684950,314082980,'',-15924,512,-1976,-69,-284,-406,0
1404222688329518076,,887,,946684950,335963010,'',-16120,412,-1988,-100,-281,-422,0
1404222688382290813,,888,,946684950,355384945,'',-15888,472,-1788,-84,-293,-427,0
1404222688382937315,,889,,946684950,374173045,'',-16008,332,-1844,-82,-280,-422,0
1404222688435994312,,890,,946684950,395521998,'',-15872,404,-1940,-78,-270,-430,0
1404222688436644182,,891,,946684950,415609955,'',-16096,476,-1956,-99,-283,-404,0
1404222688437600356,,892,,946684950,433928012,'',-15964,420,-1824,-75,-265,-421,0
1404222688497892576,,893,,946684950,455585002,'',-15936,416,-2096,-82,-302,-405,0
1404222688498862887,,894,,946684950,474074006,'',-16055,-258,-258,-258,-258,-258,0
1404222688499344084,,895,,946684950,493607997,'',-15928,436,-1956,-92,-279,-433,0
1404222688550200797,,896,,946684950,514567017,'',-15916,344,-1992,-71,-273,-403,0
1404222688551692409,,897,,946684950,533893942,'',-15936,384,-1888,-74,-274,-438,0
1404222688552158789,,898,,946684950,554314017,'',-15988,408,-1816,-84,-281,-428,0
1404222688604052979,,899,,946684950,574201941,'',-15972,432,-1920,-77,-298,-439,0
1404222688605354613,,900,,946684950,593942046,'',-15920,380,-1944,-79,-304,-412,0
1404222688657910288,,901,,946684950,614169955,'',-15876,396,-1988,-86,-291,-421,0
1404222688658920116,,902,,946684950,634613990,'',-16024,388,-1963,-258,-258,-258,0
1404222688659394073,,903,,946684950,656658053,'',-15948,496,-1720,-89,-268,-420,0
1404222688712391988,,904,,946684950,675053954,'',-16136,364,-1912,-73,-290,-430,0
1404222688713331988,,905,,946684950,693938016,'',-15996,360,-1964,-73,-269,-422,0
1404222688713793053,,906,,946684950,714804053,'',-15980,468,-1948,-65,-278,-428,0
1404222688764962541,,907,,946684950,734037995,'',-15984,396,-1892,-92,-281,-415,0
1404222688766197723,,908,,946684950,754847049,'',-16000,376,-1912,-92,-281,-415,0
1404222688818222537,,909,,946684950,773633956,'',-15896,512,-1980,-88,-271,-431,0
1404222688819246739,,910,,946684950,793795943,'',-15916,452,-1864,-79,-295,-424,0
1404222688819786745,,911,,946684950,815556049,'',-15944,352,-1920,-91,-294,-423,0
1404222688870819152,,912,,946684950,834326028,'',-15892,432,-1956,-88,-280,-401,0
1404222688871808569,,913,,946684950,854303956,'',-15996,428,-2004,-92,-282,-409,0
1404222688872436885,,914,,946684950,873646974,'',-15904,348,-1816,-92,-282,-430,0
1404222688923678111,,915,,946684950,893996953,'',-16024,372,-1940,-97,-292,-416,0
1404222688924498401,,916,,946684950,914546012,'',-16008,420,-1916,-78,-275,-426,0
1404222688977081753,,917,,946684950,934013009,'',-15952,352,-1880,-78,-287,-421,0
1404222688978121104,,918,,946684950,954187035,'',-15956,416,-2000,-71,-296,-422,0
1404222688978613946,,919,,946684950,974164009,'',-15972,376,-1960,-72,-307,-413,0
1404222689030312446,,920,,946684950,994140028,'',-15964,408,-1992,-97,-285,-406,0
1404222689032075827,,921,,946684951,15406012,'',-15988,404,-1912,-85,-276,-408,0
1404222689032672621,,922,,946684951,33936023,'',-15880,420,-1932,-84,-299,-409,0
1404222689084106080,,923,,946684951,54221034,'',-15980,372,-1976,-78,-306,-417,0
1404222689085503640,,924,,946684951,74432015,'',-16032,392,-2024,-92,-259,-399,0
1404222689139914630,,925,,946684951,93616008,'',-15896,404,-1936,-99,-285,-436,0
1404222689141071120,,926,,946684951,115262985,'',-15992,304,-1748,-94,-296,-418,0
1404222689141592103,,927,,946684951,134356975,'',-15876,328,-2000,-61,-273,-420,0
1404222689193456973,,928,,946684951,155676007,'',-15988,280,-1992,-102,-283,-424,0
1404222689194476608,,929,,946684951,174589991,'',-15952,424,-1824,-78,-284,-417,0
1404222689195005436,,930,,946684951,194138050,'',-15980,384,-2016,-88,-275,-434,0
1404222689247635883,,931,,946684951,215613007,'',-15980,384,-1904,-68,-269,-417,0
1404222689249416993,,932,,946684951,233921051,'',-16020,424,-1956,-94,-267,-432,0
1404222689300696079,,933,,946684951,255007028,'',-16036,340,-1896,-88,-307,-437,0
1404222689301810902,,934,,946684951,273653030,'',-15912,344,-2036,-87,-282,-514,0
1404222689302305248,,935,,946684951,293652057,'',-15980,348,-1920,-87,-270,-421,0
1404222689354308919,,936,,946684951,315490961,'',-15904,440,-1720,-82,-262,-399,0
1404222689355290294,,937,,946684951,333945035,'',-15984,432,-1828,-89,-291,-419,0
1404222689355753828,,938,,946684951,354518055,'',-15876,352,-1872,-258,-258,-258,0
1404222689406618233,,939,,946684951,374483942,'',-16008,276,-1932,-75,-274,-416,0
1404222689407847148,,940,,946684951,393694996,'',-15912,372,-1896,-70,-286,-416,0
1404222689460131554,,941,,946684951,415716052,'',-16064,428,-1876,-80,-256,-417,0
1404222689461344684,,942,,946684951,433928012,'',-15952,340,-1936,-98,-260,-414,0
1404222689461840651,,943,,946684951,454252958,'',-15856,332,-2084,-99,-301,-432,0
1404222689503755153,,944,,946684951,475026011,'',-15960,332,-2028,-71,-260,-429,0
1404222689504740842,,945,,946684951,493734002,'',-15976,364,-1908,-88,-272,-421,0
1404222689557635486,,946,,946684951,515496015,'',-15984,328,-1992,-86,-281,-419,0
1404222689558685161,,947,,946684951,534113049,'',-15964,408,-1952,-50,-295,-403,0
1404222689559305396,,948,,946684951,554008960,'',-16000,432,-1868,-78,-291,-401,0
1404222689612646271,,949,,946684951,573976039,'',-15924,344,-1824,-66,-285,-409,0
1404222689613750186,,950,,946684951,594095945,'',-16008,396,-1900,-104,-284,-414,0
1404222689614295125,,951,,946684951,615242004,'',-15932,404,-1900,-72,-259,-429,0
1404222689664888563,,952,,946684951,634943008,'',-15960,296,-2064,-109,-265,-423,0
1404222689666243387,,953,,946684951,654997944,'',-15896,388,-1872,-73,-281,-426,0
1404222689717926598,,954,,946684951,675343036,'',-15960,368,-2032,-66,-269,-413,0
1404222689718940697,,955,,946684951,693631052,'',-15940,448,-1912,-95,-274,-431,0
1404222689719477019,,956,,946684951,715600967,'',-16012,380,-1896,-69,-295,-402,0
1404222689771960705,,957,,946684951,734259009,'',-15920,376,-1972,-73,-289,-419,0
1404222689773452935,,958,,946684951,754376053,'',-15972,348,-2004,-90,-285,-414,0
1404222689774053499,,959,,946684951,773640036,'',-15980,340,-1972,-75,-284,-418,0
1404222689832406762,,960,,946684951,793815970,'',-15896,400,-1844,-87,-272,-413,0
1404222689833587291,,961,,946684951,815655946,'',-16028,364,-1896,-89,-285,-414,0
1404222689834011828,,962,,946684951,833976984,'',-15868,396,-1788,-68,-308,-441,0
1404222689885695039,,963,,946684951,854742050,'',-16028,376,-1784,-95,-286,-432,0
1404222689886853954,,964,,946684951,874673008,'',-15952,376,-1900,-116,-282,-416,0
1404222689938578664,,965,,946684951,894325971,'',-16024,420,-1928,-89,-281,-392,0
1404222689939646252,,966,,946684951,915967941,'',-16036,392,-2016,-62,-288,-413,0
1404222689940312693,,967,,946684951,934120059,'',-15972,356,-1912,-94,-297,-414,0
1404222689992530651,,968,,946684951,954625964,'',-15976,460,-1920,-73,-282,-421,0
1404222689993581154,,969,,946684951,974293947,'',-15972,400,-2016,-74,-288,-412,0
1404222689994110448,,970,,946684951,993713021,'',-16028,404,-1836,-92,-269,-421,0
1404222690045949873,,971,,946684952,16391038,'',-15920,416,-1916,-68,-266,-433,0
1404222690047195030,,972,,946684952,33885002,'',-15956,308,-1884,-82,-255,-428,0
1404222690097896765,,973,,946684952,54491043,'',-15928,336,-1808,-77,-281,-409,0
1404222690100359036,,974,,946684952,74048995,'',-15996,356,-1852,-84,-279,-408,0
1404222690101722383,,975,,946684952,93533039,'',-16056,492,-1988,-76,-289,-426,0
1404222690155926012,,976,,946684952,116054058,'',-15980,404,-1940,-101,-280,-429,0
1404222690157298013,,977,,946684952,134286046,'',-15960,404,-1952,-51,-279,-418,0
1404222690210094754,,978,,946684952,155604958,'',-16008,428,-1972,-84,-276,-421,0
1404222690211144027,,979,,946684952,174787044,'',-15872,492,-1936,-68,-292,-426,0
1404222690211647356,,980,,946684952,194445013,'',-15968,380,-1944,-106,-287,-412,0
1404222690260766770,,981,,946684952,214380979,'',-15860,372,-1952,-74,-292,-410,0
1404222690262037027,,982,,946684952,233764052,'',-15964,348,-1900,-61,-285,-405,0
1404222690262852207,,983,,946684952,253608942,'',-16060,396,-2000,-72,-275,-419,0
1404222690313613862,,984,,946684952,274186015,'',-16024,504,-1836,-81,-287,-425,0
1404222690315249212,,985,,946684952,293609976,'',-16104,380,-1860,-89,-293,-416,0
1404222690368855011,,986,,946684952,314720988,'',-16004,364,-1848,-91,-281,-422,0
1404222690369826544,,987,,946684952,333894014,'',-16000,344,-2072,-58,-269,-416,0
1404222690370301234,,988,,946684952,353685975,'',-15940,436,-2080,-90,-286,-408,0
1404222690421614008,,989,,946684952,374317049,'',-15964,420,-2044,-82,-271,-405,0
1404222690422658699,,990,,946684952,393735051,'',-16024,388,-1876,-91,-278,-433,0
1404222690423172373,,991,,946684952,413933992,'',-16000,396,-1960,-70,-292,-423,0
1404222690475244712,,992,,946684952,433840990,'',-15948,356,-1996,-97,-285,-410,0
1404222690476713167,,993,,946684952,453763008,'',-15968,400,-1908,-84,-295,-422,0
1404222690528490363,,994,,946684952,474616050,'',-15980,340,-1940,-81,-267,-416,0
1404222690529296055,,995,,946684952,493846058,'',-15940,476,-1952,-90,-291,-405,0
1404222690529744093,,996,,946684952,514053940,'',-16024,360,-1904,-91,-264,-444,0
1404222690580804836,,997,,946684952,534263968,'',-15896,500,-2108,-86,-291,-414,0
1404222690581786082,,998,,946684952,553609013,'',-15920,412,-2096,-85,-276,-430,0
1404222690582256358,,999,,946684952,574234008,'',-15912,400,-1980,-82,-281,-426,0
1404222690635293951,,1000,,946684952,593945980,'',-15964,364,-1936,-63,-274,-415,0
1404222690636602172,,1001,,946684952,614016056,'',-15992,428,-1944,-92,-293,-425,0
1404222690689017771,,1002,,946684952,635586977,'',-16036,404,-2100,-92,-300,-413,0
1404222690690149367,,1003,,946684952,654876947,'',-15948,372,-1852,-99,-296,-420,0
1404222690690699382,,1004,,946684952,675220012,'',-15980,388,-1932,-112,-283,-418,0
1404222690741537191,,1005,,946684952,694336056,'',-15952,448,-2028,-80,-275,-436,0
1404222690742095241,,1006,,946684952,713883996,'',-15932,336,-2012,-69,-269,-423,0
1404222690743062076,,1007,,946684952,735538005,'',-15988,304,-1876,-76,-273,-424,0
1404222690794390963,,1008,,946684952,753764033,'',-15968,448,-1768,-93,-258,-258,0
1404222690795399106,,1009,,946684952,775123000,'',-16052,412,-1968,-96,-290,-413,0
1404222690846990808,,1010,,946684952,794190049,'',-15920,404,-1928,-89,-267,-419,0
1404222690848016666,,1011,,946684952,814008951,'',-16008,352,-1840,-73,-274,-423,0
1404222690848592879,,1012,,946684952,834197998,'',-15940,444,-1968,-71,-277,-432,0
1404222690901343959,,1013,,946684952,854197978,'',-16012,420,-1776,-99,-270,-421,0
1404222690902373498,,1014,,946684952,874186992,'',-15884,404,-1844,-61,-273,-414,0
1404222690902871351,,1015,,946684952,894217014,'',-15952,484,-1916,-104,-284,-413,0
1404222690954456787,,1016,,946684952,914062976,'',-15976,436,-1876,-79,-274,-425,0
1404222690955814268,,1017,,946684952,934988975,'',-16016,368,-1984,-103,-301,-433,0
1404222691008805238,,1018,,946684952,954123020,'',-15968,480,-1844,-69,-266,-408,0
1404222691009669965,,1019,,946684952,974521040,'',-15996,456,-1972,-80,-292,-420,0
1404222691010207993,,1020,,946684952,994117021,'',-16048,320,-1852,-104,-292,-420,0
1404222691068725576,,1021,,946684953,15184998,'',-15860,436,-1872,-72,-273,-433,0
1404222691070337871,,1022,,946684953,34876942,'',-16080,456,-1936,-76,-295,-409,0
1404222691070830517,,1023,,946684953,53714990,'',-15920,428,-1892,-77,-299,-404,0
1404222691122646537,,1024,,946684953,74496030,'',-15980,332,-1956,-75,-273,-420,0
1404222691123678081,,1025,,946684953,93752980,'',-16040,444,-2004,-93,-299,-413,0
1404222691124387761,,1026,,946684953,114042997,'',-16040,392,-1972,-97,-280,-427,0
1404222691177665287,,1027,,946684953,135231971,'',-15968,360,-1888,-87,-279,-406,0
1404222691178971937,,1028,,946684953,155042052,'',-15932,408,-1800,-97,-290,-416,0
1404222691230946517,,1029,,946684953,175791978,'',-15936,464,-1800,-84,-266,-428,0
1404222691232004689,,1030,,946684953,194090008,'',-15900,276,-2048,-93,-275,-412,0
1404222691232645838,,1031,,946684953,213878989,'',-15960,368,-1924,-79,-280,-420,0
1404222691283863491,,1032,,946684953,235267996,'',-16020,440,-1832,-89,-262,-413,0
1404222691285054254,,1033,,946684953,253656983,'',-15868,376,-1864,-83,-290,-417,0
1404222691285532981,,1034,,946684953,274083018,'',-15952,356,-2076,-94,-253,-413,0
1404222691336498125,,1035,,946684953,293689012,'',-15952,360,-1888,-77,-312,-432,0
1404222691337797530,,1036,,946684953,313917040,'',-15988,356,-2060,-68,-269,-413,0
1404222691390168803,,1037,,946684953,335391044,'',-15952,336,-1944,-62,-282,-413,0
1404222691390619767,,1038,,946684953,354398012,'',-15904,484,-1968,-113,-279,-401,0
1404222691391283767,,1039,,946684953,374158024,'',-16104,488,-1948,-78,-267,-424,0
1404222691444164746,,1040,,946684953,394078969,'',-15960,344,-1928,-81,-292,-421,0
1404222691445233482,,1041,,946684953,414011001,'',-15952,400,-1880,-86,-301,-412,0
1404222691445491280,,1042,,946684953,434826970,'',-15968,360,-1864,-93,-287,-413,0
1404222691496259688,,1043,,946684953,453729033,'',-15948,320,-1904,-69,-286,-434,0
1404222691497032641,,1044,,946684953,474158048,'',-15968,520,-2072,-76,-288,-428,0
1404222691550955218,,1045,,946684953,493638038,'',-15916,452,-1920,-85,-272,-412,0
1404222691551584471,,1046,,946684953,514459013,'',-16096,472,-2136,-105,-293,-431,0
1404222691551910624,,1047,,946684953,534886956,'',-16028,392,-1724,-90,-286,-440,0
1404222691604130262,,1048,,946684953,554054975,'',-15992,384,-1916,-73,-292,-424,0
1404222691604887937,,1049,,946684953,574498057,'',-15932,340,-1832,-70,-284,-435,0
1404222691605242946,,1050,,946684953,593945980,'',-16000,348,-1856,-95,-272,-414,0
1404222691657606047,,1051,,946684953,614475965,'',-15812,384,-2060,-72,-294,-414,0
1404222691658383643,,1052,,946684953,635710000,'',-15860,440,-1796,-90,-286,-411,0
1404222691710958177,,1053,,946684953,655123949,'',-15968,408,-2004,-90,-281,-424,0
1404222691711635444,,1054,,946684953,674602031,'',-15968,384,-2004,-102,-277,-433,0
1404222691711972549,,1055,,946684953,694105982,'',-15932,324,-1956,-97,-297,-420,0
1404222691764306086,,1056,,946684953,714311003,'',-15932,496,-1948,-82,-287,-418,0
1404222691765483910,,1057,,946684953,735746026,'',-16092,460,-1864,-91,-284,-433,0
1404222691766425601,,1058,,946684953,753613948,'',-15920,428,-2000,-79,-272,-427,0
1404222691818278055,,1059,,946684953,774564981,'',-15936,392,-1952,-102,-282,-407,0
1404222691819661522,,1060,,946684953,793647050,'',-15944,456,-1968,-97,-268,-413,0
1404222691870704057,,1061,,946684953,814367055,'',-15956,304,-1924,-87,-285,-407,0
1404222691871706484,,1062,,946684953,835713982,'',-15948,416,-2068,-86,-265,-441,0
1404222691872347615,,1063,,946684953,853678941,'',-15924,456,-1984,-90,-308,-410,0
1404222691924710422,,1064,,946684953,874629020,'',-15968,360,-1888,-76,-275,-420,0
1404222691925480614,,1065,,946684953,893952965,'',-15988,372,-1944,-78,-295,-398,0
1404222691926647277,,1066,,946684953,913961052,'',-15836,484,-2068,-90,-288,-429,0
1404222691979967165,,1067,,946684953,935799956,'',-16024,384,-1892,-71,-278,-431,0
1404222691981888704,,1068,,946684953,953768014,'',-16004,436,-1960,-82,-262,-420,0
1404222692034957370,,1069,,946684953,975340008,'',-16028,316,-1956,-75,-281,-390,0
1404222692035956762,,1070,,946684953,993765950,'',-15996,460,-2036,-91,-317,-416,0
1404222692036768981,,1071,,946684954,14147043,'',-15928,428,-1944,-80,-271,-403,0
1404222692087131817,,1072,,946684954,36128997,'',-15820,464,-1968,-98,-297,-404,0
1404222692088720535,,1073,,946684954,53678035,'',-15944,428,-1828,-89,-290,-429,0
1404222692089377239,,1074,,946684954,74236989,'',-16004,320,-1968,-81,-276,-422,0
1404222692141466135,,1075,,946684954,94292044,'',-15984,404,-1816,-92,-291,-415,0
1404222692142702918,,1076,,946684954,114102005,'',-16016,428,-1888,-92,-288,-409,0
1404222692195157898,,1077,,946684954,137011051,'',-15940,1022,-258,-258,-258,-258,0
1404222692196152508,,1078,,946684954,155223965,'',-15996,428,-1920,-98,-275,-433,0
1404222692196758309,,1079,,946684954,174680948,'',-15940,444,-1740,-82,-284,-405,0
1404222692247156740,,1080,,946684954,194535017,'',-16016,464,-1844,-85,-270,-419,0
1404222692248109826,,1081,,946684954,214241027,'',-15900,332,-1968,-103,-271,-428,0
1404222692248706653,,1082,,946684954,234305024,'',-15992,436,-2076,-86,-297,-405,0
1404222692300566921,,1083,,946684954,254850983,'',-16048,396,-1908,-73,-248,-422,0
1404222692301781289,,1084,,946684954,274930000,'',-16004,376,-1784,-110,-281,-420,0
1404222692353670990,,1085,,946684954,294142961,'',-16020,440,-1968,-81,-309,-440,0
1404222692354705917,,1086,,946684954,314417004,'',-15952,372,-1916,-92,-268,-410,0
1404222692355173915,,1087,,946684954,333673954,'',-16060,400,-1904,-88,-276,-440,0
1404222692397878740,,1088,,946684954,354532957,'',-15936,396,-1888,-81,-286,-416,0
1404222692399359566,,1089,,946684954,375017046,'',-16032,444,-1904,-53,-289,-412,0
1404222692450214239,,1090,,946684954,394381046,'',-15940,352,-1992,-97,-279,-411,0
1404222692451179699,,1091,,946684954,413908004,'',-16024,424,-1992,-97,-279,-411,0
1404222692451631574,,1092,,946684954,433464050,'',-15824,440,-1944,-72,-273,-415,0
1404222692502827549,,1093,,946684954,453888058,'',-16116,376,-1808,-70,-283,-421,0
1404222692505223538,,1094,,946684954,474802970,'',-15932,324,-1988,-80,-291,-426,0
1404222692506112586,,1095,,946684954,493805050,'',-15884,324,-1848,-69,-280,-422,0
1404222692555839376,,1096,,946684954,514608025,'',-16028,396,-1892,-96,-274,-443,0
1404222692557173685,,1097,,946684954,533550977,'',-16032,384,-1868,-91,-280,-406,0
1404222692610778737,,1098,,946684954,554847955,'',-15956,364,-1820,-91,-273,-414,0
1404222692611811335,,1099,,946684954,574890971,'',-15980,356,-1792,-72,-272,-418,0
1404222692612437109,,1100,,946684954,593636035,'',-16044,404,-2000,-77,-268,-416,0
1404222692664066227,,1101,,946684954,614402055,'',-15968,484,-1992,-89,-277,-428,0
1404222692665357062,,1102,,946684954,634053945,'',-15980,420,-1888,-85,-284,-397,0
1404222692717682254,,1103,,946684954,657106995,'',-15860,516,-1908,-70,-264,-400,0
1404222692718676707,,1104,,946684954,674376010,'',-15960,424,-1940,-85,-287,-436,0
1404222692719207785,,1105,,946684954,694517970,'',-15928,388,-1956,-77,-274,-425,0
1404222692770044341,,1106,,946684954,714372038,'',-15964,388,-1920,-78,-296,-421,0
1404222692771031372,,1107,,946684954,733945012,'',-15936,484,-1936,-102,-277,-418,0
1404222692771648868,,1108,,946684954,754119992,'',-16132,492,-2016,-91,-280,-417,0
1404222692821564218,,1109,,946684954,775918960,'',-15980,424,-1880,-83,-285,-417,0
1404222692822801188,,1110,,946684954,793696045,'',-16068,456,-1916,-89,-296,-433,0
1404222692874081384,,1111,,946684954,814445018,'',-15952,420,-1980,-92,-277,-408,0
1404222692875231626,,1112,,946684954,833698987,'',-15972,408,-1876,-85,-284,-418,0
1404222692875821520,,1113,,946684954,854714035,'',-15960,388,-1936,-85,-287,-415,0
1404222692928007324,,1114,,946684954,874858975,'',-15924,396,-1876,-99,-270,-439,0
1404222692929232857,,1115,,946684954,894147038,'',-15952,392,-1896,-99,-306,-420,0
1404222692929724618,,1116,,946684954,914011955,'',-15932,484,-1928,-80,-270,-441,0
1404222692981809792,,1117,,946684954,933621048,'',-16000,224,-1936,-79,-278,-395,0
1404222692983364501,,1118,,946684954,954715013,'',-15988,400,-1912,-96,-274,-409,0
1404222693035034647,,1119,,946684954,975432038,'',-15872,368,-1808,-98,-293,-413,0
1404222693036039123,,1120,,946684954,993672966,'',-15956,404,-1840,-87,-293,-420,0
1404222693036721408,,1121,,946684955,14762043,'',-15992,424,-1944,-73,-308,-415,0
1404222693090782733,,1122,,946684955,34054040,'',-15932,364,-1924,-73,-292,-422,0
1404222693091867438,,1123,,946684955,54615974,'',-15980,384,-2056,-83,-291,-429,0
1404222693092502957,,1124,,946684955,74928998,'',-16028,356,-1816,-79,-302,-403,0
1404222693144810842,,1125,,946684955,93798995,'',-15972,428,-2028,-77,-281,-423,0
1404222693146087761,,1126,,946684955,113695025,'',-15972,396,-1956,-86,-271,-425,0
1404222693198935219,,1127,,946684955,134817004,'',-15980,416,-1960,-93,-277,-417,0
1404222693200029171,,1128,,946684955,157446026,'',-16064,448,-1856,-101,-282,-426,0
1404222693200689937,,1129,,946684955,175181984,'',-16016,352,-1808,-88,-282,-420,0
1404222693242533714,,1130,,946684955,194826006,'',-15996,380,-1924,-91,-280,-419,0
1404222693243782138,,1131,,946684955,214123010,'',-15952,452,-2040,-72,-290,-404,0
1404222693296481620,,1132,,946684955,234004020,'',-16056,396,-2044,-74,-274,-436,0
1404222693297428688,,1133,,946684955,254788041,'',-15888,348,-1784,-99,-309,-410,0
1404222693297882168,,1134,,946684955,274961948,'',-15992,408,-2052,-70,-293,-423,0
1404222693349361005,,1135,,946684955,294010043,'',-16012,336,-1824,-77,-275,-420,0
1404222693350780450,,1136,,946684955,313709020,'',-16008,440,-1896,-85,-268,-415,0
1404222693351523616,,1137,,946684955,333570003,'',-15932,364,-2052,-91,-284,-399,0
1404222693401815845,,1138,,946684955,355152010,'',-15844,356,-1952,-93,-274,-415,0
1404222693403031940,,1139,,946684955,375594973,'',-16032,1022,-258,-258,-258,-258,0
1404222693465491801,,1140,,946684955,394021987,'',-16064,440,-1812,-71,-276,-412,0
1404222693466590021,,1141,,946684955,414021968,'',-16024,408,-2064,-70,-270,-434,0
1404222693467348794,,1142,,946684955,434118032,'',-15980,424,-2012,-87,-289,-416,0
1404222693518361920,,1143,,946684955,458752989,'',-15948,436,-1968,-82,-300,-432,0
1404222693518989595,,1144,,946684955,477203011,'',-15988,456,-1956,-87,-292,-414,0
1404222693519966759,,1145,,946684955,494523048,'',-15868,304,-1956,-43,-250,-410,0
1404222693572306826,,1146,,946684955,515617966,'',-15996,412,-1940,-80,-302,-411,0
1404222693573017903,,1147,,946684955,533710956,'',-15944,356,-1932,-66,-266,-430,0
1404222693625160604,,1148,,946684955,555539965,'',-15896,436,-2080,-78,-277,-424,0
1404222693626211926,,1149,,946684955,575355052,'',-15916,380,-1964,-73,-291,-428,0
1404222693626710727,,1150,,946684955,593629002,'',-15932,428,-1904,-84,-280,-413,0
1404222693677257978,,1151,,946684955,613922953,'',-16008,360,-2024,-80,-266,-405,0
1404222693678351423,,1152,,946684955,634358048,'',-16032,328,-1796,-100,-291,-417,0
1404222693678838321,,1153,,946684955,656522035,'',-15888,388,-1936,-60,-272,-438,0
1404222693731379731,,1154,,946684955,675591945,'',-16028,344,-1944,-72,-271,-426,0
1404222693732683212,,1155,,946684955,694146037,'',-15932,500,-1992,-84,-288,-415,0
1404222693782808806,,1156,,946684955,713608980,'',-15916,296,-1872,-71,-272,-418,0
1404222693783839201,,1157,,946684955,733713030,'',-15988,488,-2088,-84,-284,-423,0
1404222693784471739,,1158,,946684955,755141973,'',-15952,308,-1916,-97,-271,-419,0
1404222693835212055,,1159,,946684955,775704979,'',-16032,464,-2052,-72,-288,-411,0
1404222693836341591,,1160,,946684955,793763041,'',-15976,360,-1944,-88,-282,-424,0
1404222693836860943,,1161,,946684955,813567996,'',-15988,280,-1928,-81,-294,-416,0
1404222693890429175,,1162,,946684955,834125995,'',-16032,364,-1992,-89,-287,-422,0
1404222693891673253,,1163,,946684955,855399012,'',-15944,364,-2052,-84,-291,-418,0
1404222693941202520,,1164,,946684955,875738978,'',-15888,372,-1932,-96,-281,-413,0
1404222693942263367,,1165,,946684955,893987059,'',-16044,372,-1960,-71,-303,-417,0
1404222693942759313,,1166,,946684955,913630008,'',-15908,436,-2012,-93,-255,-417,0
1404222693993120452,,1167,,946684955,934064984,'',-15964,416,-1952,-86,-314,-425,0
1404222693994138617,,1168,,946684955,955865025,'',-15952,344,-1836,-77,-294,-428,0
1404222693994671654,,1169,,946684955,975175976,'',-15972,420,-1988,-82,-276,-391,0
1404222694046058569,,1170,,946684955,994374036,'',-15792,464,-1972,-95,-272,-430,0
1404222694047077009,,1171,,946684956,14186978,'',-15908,320,-1944,-100,-278,-415,0
1404222694047584278,,1172,,946684956,33679008,'',-15940,332,-1844,-78,-288,-423,0
1404222694109600447,,1173,,946684956,55909991,'',-16028,448,-1928,-85,-273,-407,0
1404222694110639939,,1174,,946684956,74967026,'',-16000,380,-1892,-73,-311,-417,0
1404222694111125602,,1175,,946684956,93616962,'',-15924,372,-2108,-59,-265,-423,0
1404222694164157542,,1176,,946684956,113641023,'',-15936,384,-1900,-74,-284,-430,0
1404222694165454660,,1177,,946684956,134124994,'',-15916,404,-2052,-106,-292,-422,0
1404222694217183765,,1178,,946684956,158161044,'',-16020,316,-2000,-95,-276,-441,0
1404222694218581501,,1179,,946684956,175593972,'',-15912,464,-1836,-68,-291,-411,0
1404222694219156267,,1180,,946684956,194782018,'',-16012,1022,-258,-258,-258,-258,0
1404222694269500415,,1181,,946684956,214043974,'',-15912,448,-1948,-82,-293,-416,0
1404222694270935211,,1182,,946684956,233937978,'',-16028,376,-1820,-87,-280,-407,0
1404222694271635503,,1183,,946684956,253864049,'',-15948,364,-2016,-81,-282,-410,0
1404222694320699945,,1184,,946684956,274904012,'',-16016,396,-1916,-68,-297,-423,0
1404222694321272299,,1185,,946684956,293758034,'',-16004,512,-1964,-80,-285,-408,0
1404222694373480845,,1186,,946684956,314046025,'',-16008,436,-1860,-79,-290,-420,0
1404222694373872806,,1187,,946684956,333618998,'',-16048,444,-1948,-85,-289,-404,0
1404222694374072619,,1188,,946684956,353718996,'',-15932,356,-1812,-90,-280,-417,0
1404222694428020490,,1189,,946684956,375450015,'',-15920,424,-1884,-75,-283,-414,0
1404222694429057286,,1190,,946684956,393579959,'',-15940,368,-1892,-85,-285,-412,0
1404222694429592006,,1191,,946684956,413650989,'',-15972,436,-1860,-84,-265,-408,0
1404222694481559423,,1192,,946684956,433642029,'',-15888,356,-1944,-91,-280,-413,0
1404222694483528017,,1193,,946684956,454033017,'',-15976,344,-1948,-80,-294,-408,0
1404222694534133475,,1194,,946684956,475363969,'',-15964,380,-1976,-93,-290,-423,0
1404222694535303354,,1195,,946684956,493770956,'',-16012,344,-1936,-71,-279,-407,0
1404222694535820083,,1196,,946684956,513543009,'',-16000,380,-1800,-99,-295,-424,0
1404222694586315451,,1197,,946684956,533915996,'',-15972,396,-1960,-76,-278,-418,0
1404222694587578219,,1198,,946684956,553992986,'',-15944,472,-1912,-77,-270,-427,0
1404222694640467130,,1199,,946684956,575608015,'',-15956,428,-1996,-88,-290,-425,0
1404222694641408548,,1200,,946684956,593781948,'',-15940,392,-1812,-97,-286,-413,0
1404222694641881518,,1201,,946684956,613999962,'',-16020,304,-1848,-105,-276,-428,0
1404222694694633679,,1202,,946684956,633985042,'',-15968,480,-1996,-90,-292,-412,0
1404222694695640021,,1203,,946684956,655606985,'',-15904,472,-1888,-99,-293,-417,0
1404222694696107062,,1204,,946684956,675987005,'',-15980,416,-1988,-90,-288,-426,0
1404222694748289038,,1205,,946684956,695260047,'',-16008,384,-1900,-57,-267,-428,0
1404222694749120349,,1206,,946684956,713724970,'',-16072,388,-2096,-79,-293,-426,0
1404222694749506639,,1207,,946684956,734096050,'',-15916,396,-1936,-97,-276,-416,0
1404222694801762761,,1208,,946684956,754325985,'',-16004,436,-2008,-77,-275,-406,0
1404222694803104839,,1209,,946684956,774850964,'',-15964,368,-1912,-70,-321,-410,0
1404222694856423418,,1210,,946684956,794607043,'',-15968,352,-1860,-68,-273,-421,0
1404222694857466508,,1211,,946684956,813544034,'',-16000,408,-1916,-89,-278,-420,0
1404222694858017310,,1212,,946684956,833533048,'',-16056,400,-2000,-76,-302,-423,0
1404222694900424123,,1213,,946684956,854673981,'',-16016,436,-1968,-86,-278,-417,0
1404222694901663974,,1214,,946684956,875308990,'',-15888,364,-1884,-92,-268,-415,0
1404222694952932757,,1215,,946684956,894876956,'',-16056,385,-258,-258,-258,-258,0
1404222694954051866,,1216,,946684956,913751006,'',-15900,444,-2004,-90,-313,-419,0
1404222694954544159,,1217,,946684956,933521986,'',-16028,392,-1948,-66,-265,-419,0
1404222695006175234,,1218,,946684956,954316973,'',-15904,416,-1920,-89,-267,-411,0
1404222695007502087,,1219,,946684956,975406050,'',-15976,412,-1956,-86,-281,-421,0
1404222695059129457,,1220,,946684956,993726015,'',-15864,360,-1880,-68,-291,-420,0
1404222695060159690,,1221,,946684957,14178991,'',-15968,280,-2032,-89,-290,-434,0
1404222695060770276,,1222,,946684957,33781051,'',-16008,516,-1968,-80,-284,-419,0
1404222695111725173,,1223,,946684957,54854989,'',-15940,408,-1900,-92,-284,-425,0
1404222695112758181,,1224,,946684957,75577020,'',-15976,420,-1848,-83,-292,-409,0
1404222695113276642,,1225,,946684957,94094991,'',-15988,408,-1960,-105,-285,-416,0
1404222695167890037,,1226,,946684957,113785982,'',-16004,352,-2004,-83,-284,-430,0
1404222695169222682,,1227,,946684957,133821010,'',-15916,412,-1924,-71,-287,-436,0
1404222695219747447,,1228,,946684957,156834959,'',-15992,488,-1792,-78,-282,-422,0
1404222695220735639,,1229,,946684957,175209045,'',-15992,488,-1792,-78,-282,-422,0
1404222695221188950,,1230,,946684957,194494962,'',-15948,380,-2080,-81,-281,-414,0
1404222695272451791,,1231,,946684957,214383006,'',-16000,412,-1924,-101,-269,-421,0
1404222695273279767,,1232,,946684957,233647942,'',-15952,408,-1924,-78,-274,-413,0
1404222695273790156,,1233,,946684957,254320979,'',-16020,428,-1932,-86,-258,-430,0
1404222695328924046,,1234,,946684957,275390982,'',-16036,396,-1924,-70,-265,-421,0
1404222695329940893,,1235,,946684957,293791055,'',-15924,464,-1828,-96,-313,-414,0
1404222695330421654,,1236,,946684957,313531041,'',-15976,344,-2004,-65,-303,-414,0
1404222695381484383,,1237,,946684957,333806991,'',-15968,384,-1796,-86,-294,-403,0
1404222695383215373,,1238,,946684957,354279994,'',-15932,408,-2048,-82,-281,-427,0
1404222695435011099,,1239,,946684957,376206994,'',-16028,424,-1892,-106,-303,-439,0
1404222695435966549,,1240,,946684957,393633008,'',-15952,400,-2040,-85,-287,-419,0
1404222695436520889,,1241,,946684957,413642048,'',-16104,396,-1844,-88,-270,-425,0
1404222695488825372,,1242,,946684957,434407949,'',-15900,484,-1936,-76,-313,-422,0
1404222695489815103,,1243,,946684957,454282045,'',-16048,392,-1788,-69,-265,-423,0
1404222695490289608,,1244,,946684957,475262999,'',-15948,252,-2008,-66,-300,-413,0
1404222695542136382,,1245,,946684957,493906974,'',-16044,420,-1744,-82,-287,-421,0
1404222695543393076,,1246,,946684957,513548016,'',-15884,324,-1820,-61,-296,-415,0
1404222695594068087,,1247,,946684957,534013032,'',-15896,424,-1920,-65,-270,-425,0
1404222695595031765,,1248,,946684957,554293036,'',-15988,408,-2064,-89,-285,-419,0
1404222695595545549,,1249,,946684957,575763940,'',-15912,360,-2008,-94,-281,-431,0
1404222695647569551,,1250,,946684957,594442009,'',-15960,416,-2092,-95,-272,-417,0
1404222695648715676,,1251,,946684957,613592982,'',-15936,396,-1888,-74,-266,-408,0
1404222695649201109,,1252,,946684957,633751034,'',-16048,380,-1808,-76,-287,-411,0
1404222695700488084,,1253,,946684957,655707955,'',-15868,368,-1880,-95,-273,-427,0
1404222695701782889,,1254,,946684957,676182985,'',-15976,280,-1864,-90,-296,-421,0
1404222695753458218,,1255,,946684957,695837974,'',-15948,376,-1976,-104,-296,-414,0
1404222695754656733,,1256,,946684957,713709950,'',-16136,356,-1916,-78,-272,-433,0
1404222695755213365,,1257,,946684957,733494043,'',-15892,344,-1992,-81,-281,-399,0
1404222695806547284,,1258,,946684957,754680037,'',-15976,448,-1796,-71,-280,-422,0
1404222695807556959,,1259,,946684957,775946021,'',-15952,416,-2048,-89,-280,-422,0
1404222695808027270,,1260,,946684957,794085979,'',-15916,432,-1924,-96,-294,-441,0
1404222695869220160,,1261,,946684957,814165949,'',-15900,428,-1900,-85,-276,-425,0
1404222695870197021,,1262,,946684957,833593964,'',-15916,372,-1964,-86,-288,-427,0
1404222695870666556,,1263,,946684957,854228019,'',-16004,356,-1908,-57,-263,-398,0
1404222695929651967,,1264,,946684957,875838994,'',-15880,456,-1972,-87,-265,-413,0
1404222695930733198,,1265,,946684957,893777966,'',-15940,392,-1748,-87,-265,-413,0
1404222695931241026,,1266,,946684957,913630962,'',-15944,416,-2000,-97,-236,-432,0
1404222695991251856,,1267,,946684957,933814048,'',-16032,404,-1876,-73,-285,-414,0
1404222695992093690,,1268,,946684957,954406976,'',-15908,432,-1956,-76,-333,-400,0
1404222695992635676,,1269,,946684957,975818991,'',-16000,496,-1840,-56,-305,-404,0
1404222696044564603,,1270,,946684957,993886947,'',-15892,448,-1860,-90,-248,-420,0
1404222696045368746,,1271,,946684958,13836026,'',-15900,492,-1908,-72,-174,-511,0
1404222696095868633,,1272,,946684958,34522056,'',-15932,368,-2016,-59,-156,-569,0
1404222696097198079,,1273,,946684958,54218053,'',-16416,556,-2060,-88,-105,-592,0
1404222696097760957,,1274,,946684958,74071049,'',-16080,472,-1924,-63,-166,-649,0
1404222696149493770,,1275,,946684958,94913005,'',-15932,-144,-1992,-59,-383,-509,0
1404222696150734771,,1276,,946684958,113930940,'',-15932,-144,-1992,-59,-383,-509,0
1404222696151369962,,1277,,946684958,133985996,'',-15972,-96,-1808,-124,-349,-218,0
1404222696202494255,,1278,,946684958,155464053,'',-16068,72,-1780,-112,-277,156,0
1404222696203778991,,1279,,946684958,173311948,'',-16312,880,-2016,-3,-254,-99,0
1404222696255501875,,1280,,946684958,196123957,'',-16288,680,-1544,-169,-290,-795,0
1404222696256652519,,1281,,946684958,213971018,'',-16288,680,-1544,-169,-290,-795,0
1404222696257144326,,1282,,946684958,233533024,'',-15992,368,-1956,-47,-135,-835,0
1404222696308597927,,1283,,946684958,254876017,'',-16176,44,-2164,-180,-528,-405,0
1404222696309594946,,1284,,946684958,273105978,'',-15676,252,-1832,5,-437,-288,0
1404222696310072677,,1285,,946684958,294453024,'',-16324,552,-1720,-138,-300,-301,0
1404222696363170167,,1286,,946684958,314100980,'',-15904,552,-1948,-182,-253,-510,0
1404222696364523939,,1287,,946684958,334375023,'',-16088,396,-1964,-219,-336,-625,0
1404222696416768684,,1288,,946684958,355496048,'',-16036,148,-2124,-281,-368,-512,0
1404222696417694820,,1289,,946684958,374358057,'',-16096,436,-1972,-243,-500,-428,0
1404222696418146959,,1290,,946684958,394243955,'',-16028,384,-1840,-157,-498,-486,0
1404222696470301488,,1291,,946684958,414065957,'',-15928,200,-1876,-71,-508,-418,0
1404222696471279280,,1292,,946684958,434175968,'',-16152,288,-1764,-140,-466,-257,0
1404222696471789525,,1293,,946684958,454846024,'',-15932,328,-1736,-290,-423,-246,0
1404222696523214500,,1294,,946684958,474933028,'',-16048,384,-1836,-270,-382,-275,0
1404222696524416971,,1295,,946684958,495257973,'',-16212,828,-2056,-123,-524,-398,0
1404222696576141362,,1296,,946684958,514863967,'',-16084,1120,-2248,-235,-695,-675,0
1404222696577308826,,1297,,946684958,534716010,'',-16772,-332,-1908,-519,-1345,-583,0
1404222696577802732,,1298,,946684958,555456042,'',-14900,1980,-2320,-254,-1034,-868,0
1404222696629223998,,1299,,946684958,575553059,'',-15264,-24,-1484,-712,-1127,-1239,0
1404222696629974721,,1300,,946684958,597180008,'',-16628,-156,-1760,-1432,-1354,-782,0
1404222696630421216,,1301,,946684958,614930987,'',-16472,-172,-1416,-1970,-1523,-507,0
1404222696680814950,,1302,,946684958,634610056,'',-15944,-336,-944,-2143,-1727,-404,0
1404222696682475623,,1303,,946684958,656816959,'',-16480,-528,-900,-2185,-1749,-378,0
1404222696734438928,,1304,,946684958,675397038,'',-17028,-520,-972,-2296,-1733,-283,0
1404222696735413253,,1305,,946684958,696786046,'',-17448,-260,-592,-2446,-1095,-345,0
1404222696735926366,,1306,,946684958,713317036,'',-17896,4,-968,-2739,-300,-383,0
1404222696787531947,,1307,,946684958,734315037,'',-18264,44,-1212,-2833,297,-374,0
1404222696788626050,,1308,,946684958,754665970,'',-17992,28,-1396,-2768,532,-422,0
1404222696789116226,,1309,,946684958,774775028,'',-18000,168,-1780,-2431,-258,-258,0
1404222696841437068,,1310,,946684958,795600056,'',-17952,100,-1784,-2141,639,-763,0
1404222696842644561,,1311,,946684958,813627004,'',-18176,40,-1864,-1922,578,-628,0
1404222696894964375,,1312,,946684958,834485054,'',-18108,48,-2140,-1701,419,-396,0
1404222696895993619,,1313,,946684958,854969024,'',-17868,388,-1996,-1576,501,-240,0
1404222696896685032,,1314,,946684958,873649954,'',-17780,128,-1816,-1491,794,-8,0
1404222696947781929,,1315,,946684958,895498037,'',-17260,280,-2268,-1187,941,20,0
1404222696948489544,,1316,,946684958,914003014,'',-16936,348,-1900,-1013,1053,-63,0
1404222696948805474,,1317,,946684958,933509945,'',-16712,444,-2328,-752,961,-232,0
1404222697001165118,,1318,,946684958,954717993,'',-16288,488,-2388,-419,451,-490,0
1404222697002043462,,1319,,946684958,973633050,'',-15900,576,-2248,-185,65,-628,0
1404222697053912312,,1320,,946684958,995597958,'',-15884,180,-2108,-30,-54,-580,0
1404222697054510758,,1321,,946684959,13651967,'',-15556,376,-2100,76,-17,-585,0
1404222697054803933,,1322,,946684959,32873034,'',-15444,412,-1932,63,84,-577,0
1404222697105956528,,1323,,946684959,54219007,'',-15472,336,-1856,42,126,-346,0
1404222697107772388,,1324,,946684959,71959972,'',-15508,236,-1924,30,22,45,0
1404222697163034400,,1325,,946684959,95996022,'',-14338,-258,-258,-258,-258,-258,0
1404222697164024974,,1326,,946684959,113281011,'',-15232,664,-1948,204,-334,675,0
1404222697164754288,,1327,,946684959,133694052,'',-15088,644,-1780,215,-326,571,0
1404222697217486496,,1328,,946684959,155578970,'',-14996,672,-1944,44,-271,393,0
1404222697218580238,,1329,,946684959,174340963,'',-14836,776,-1908,-296,-116,319,0
1404222697219164351,,1330,,946684959,196177959,'',-15020,816,-2024,-671,-144,531,0
1404222697270982927,,1331,,946684959,214393019,'',-15148,1112,-2156,-763,-200,488,0
1404222697271991674,,1332,,946684959,234532952,'',-15340,1496,-2136,-100,137,-448,0
1404222697272515994,,1333,,946684959,254969000,'',-15352,1544,-1868,652,808,-1321,0
1404222697325094829,,1334,,946684959,274685978,'',-15088,944,-2168,1490,1353,-2000,0
1404222697326319167,,1335,,946684959,296267032,'',-14236,616,-2400,2345,1363,-2581,0
1404222697378708337,,1336,,946684959,314468026,'',-13984,572,-2324,2552,445,-2538,0
1404222697379733871,,1337,,946684959,334972023,'',-14184,-168,-2296,2414,-558,-1768,0
1404222697380503917,,1338,,946684959,355649948,'',-14356,-712,-2388,2042,-1126,-724,0
1404222697431439812,,1339,,946684959,374945044,'',-15148,-412,-1392,1420,-976,575,0
1404222697432577689,,1340,,946684959,395262002,'',-15152,0,-1792,717,-569,1448,0
1404222697433043959,,1341,,946684959,413351058,'',-14840,492,-2080,63,-620,1768,0
1404222697485015692,,1342,,946684959,434152960,'',-15236,496,-1560,-320,-587,1906,0
1404222697486249204,,1343,,946684959,454381942,'',-15048,360,-1712,-328,-186,1797,0
1404222697538423191,,1344,,946684959,473983049,'',-15168,736,-2116,-65,378,1395,0
1404222697539455451,,1345,,946684959,495574951,'',-14688,980,-1908,156,737,1056,0
1404222697539972317,,1346,,946684959,512989997,'',-14704,972,-2220,359,681,997,0
1404222697592580699,,1347,,946684959,533563017,'',-14744,784,-2532,192,57,1172,0
1404222697593648159,,1348,,946684959,554622054,'',-15020,1136,-2068,-119,-679,1537,0
1404222697594142590,,1349,,946684959,575081944,'',-15468,840,-1672,-402,-1067,1839,0
1404222697645221822,,1350,,946684959,596421003,'',-15600,832,-1864,-730,-977,1936,0
1404222697646471385,,1351,,946684959,614325046,'',-15668,820,-2008,-1261,-974,2108,0
1404222697698725005,,1352,,946684959,635491013,'',-15340,1360,-2064,-2028,-891,2067,0
1404222697699755896,,1353,,946684959,656823039,'',-15208,1288,-2032,-2935,-508,1599,0
1404222697700337189,,1354,,946684959,674857020,'',-15120,1496,-1580,-2777,294,500,0
1404222697751841994,,1355,,946684959,698094964,'',-15028,1820,-1720,-2559,538,-328,0
1404222697752926007,,1356,,946684959,714575052,'',-14900,2060,-1872,-2524,613,-762,0
1404222697753429157,,1357,,946684959,734969973,'',-14772,1940,-2240,-2707,309,-1168,0
1404222697805422414,,1358,,946684959,755221962,'',-14904,944,-2204,-2326,-122,-1068,0
1404222697806639264,,1359,,946684959,775599956,'',-15292,1524,-2532,-1858,-258,-1334,0
1404222697858504637,,1360,,946684959,797930002,'',-16068,1344,-1764,-1202,-879,-1056,0
1404222697859540746,,1361,,946684959,814515948,'',-16336,1812,-1692,-569,-446,-894,0
1404222697860132881,,1362,,946684959,834599971,'',-15932,1604,-1400,-107,-593,-887,0
1404222697910902905,,1363,,946684959,855147957,'',-15980,1476,-1840,146,-1093,-659,0
1404222697912668125,,1364,,946684959,874744057,'',-15976,1808,-1924,364,-1322,-725,0
1404222697913320553,,1365,,946684959,896510958,'',-15880,860,-1952,485,-1319,-179,0
1404222697962673167,,1366,,946684959,914296984,'',-15592,1432,-1860,535,-768,192,0
1404222697963963777,,1367,,946684959,933433055,'',-15592,1432,-1860,535,-768,192,0
1404222698015167022,,1368,,946684959,954686999,'',-14243,-258,-258,-258,-258,-258,0
1404222698016121286,,1369,,946684959,974334955,'',-13924,1380,-872,1741,245,-656,0
1404222698016787060,,1370,,946684959,995682001,'',-13820,548,-1188,2133,-341,38,0
1404222698067882713,,1371,,946684960,14636993,'',-13576,1216,-1576,2262,-861,375,0
1404222698069815314,,1372,,946684960,34785032,'',-13472,1788,-1328,2064,-1291,194,0
1404222698070346019,,1373,,946684960,53861021,'',-13312,532,-1464,2016,-1613,257,0
1404222698121721331,,1374,,946684960,74455976,'',-14028,-52,-2024,2198,-1206,340,0
1404222698123059096,,1375,,946684960,96935987,'',-14452,264,-2036,2468,-1434,1004,0
1404222698175386876,,1376,,946684960,114768981,'',-15004,728,-2088,2402,-1895,1490,0
1404222698176497784,,1377,,946684960,134986996,'',-15916,1032,-1928,1823,-1976,1841,0
1404222698176986653,,1378,,946684960,154099941,'',-17204,900,-2064,811,-1931,2638,0
1404222698228414363,,1379,,946684960,176036000,'',-18224,1460,-1188,199,-1096,3402,0
1404222698229427669,,1380,,946684960,195639967,'',-18300,2204,-796,251,218,4082,0
1404222698229931244,,1381,,946684960,213961958,'',-18056,2636,-880,706,953,4635,0
1404222698281058961,,1382,,946684960,234748005,'',-17472,3228,-1736,1642,1021,4471,0
1404222698282442785,,1383,,946684960,254124045,'',-16976,3504,-2412,2211,893,3671,0
1404222698334511195,,1384,,946684960,274952054,'',-16428,3436,-2556,2326,563,-258,0
1404222698335528109,,1385,,946684960,295657992,'',-16204,3516,-2440,2230,199,2840,0
1404222698336011430,,1386,,946684960,315191984,'',-15920,3720,-2480,2178,-283,2788,0
1404222698387044069,,1387,,946684960,335773944,'',-15860,4172,-2424,2264,-636,2660,0
1404222698388597573,,1388,,946684960,354807972,'',-15964,4312,-2252,2608,-1110,2578,0
1404222698440535974,,1389,,946684960,375532984,'',-16172,3896,-2408,2820,-1439,3006,0
1404222698441633761,,1390,,946684960,396463990,'',-16164,4096,-2140,2599,-1465,3370,0
1404222698442128327,,1391,,946684960,415616035,'',-16596,4024,-2340,2021,-1431,3512,0
1404222698494062935,,1392,,946684960,435426950,'',-16756,4340,-2544,1180,-1606,3836,0
1404222698495233544,,1393,,946684960,454391956,'',-16988,4708,-2228,589,-1443,3948,0
1404222698496159710,,1394,,946684960,474179029,'',-17316,4904,-2120,207,-1080,4116,0
1404222698546980865,,1395,,946684960,496376037,'',-17224,5124,-2148,-193,-315,3979,0
1404222698548436182,,1396,,946684960,514685034,'',-16744,4824,-2292,-464,574,3779,0
1404222698599658546,,1397,,946684960,538931965,'',-15756,4972,-2836,-866,1099,3597,0
1404222698600939172,,1398,,946684960,557536005,'',-15268,4916,-2708,-1267,1309,3243,0
1404222698601428792,,1399,,946684960,575850009,'',-14992,4928,-2708,-1565,869,3193,0
1404222698652963808,,1400,,946684960,596649050,'',-14952,4956,-2476,-1749,441,6654,0
1404222698653791674,,1401,,946684960,614977955,'',-15360,5008,-2052,-1728,158,3042,0
1404222698654207028,,1402,,946684960,634693980,'',-15628,5376,-1340,-1587,-67,3198,0
1404222698705577870,,1403,,946684960,655040979,'',-15328,5668,-1064,-1605,-35,3688,0
1404222698706803802,,1404,,946684960,676200032,'',-15104,5756,-884,-1609,-124,4178,0
1404222698755671943,,1405,,946684960,696846961,'',-14860,6020,-900,-1459,-58,4413,0
1404222698756584427,,1406,,946684960,714851021,'',-14116,6392,-912,-1169,193,4569,0
1404222698756975079,,1407,,946684960,734122037,'',-13756,6804,-760,-969,476,4864,0
1404222698806045993,,1408,,946684960,754587054,'',-13792,7152,-1436,-713,412,4952,0
1404222698807364481,,1409,,946684960,775236010,'',-13688,6868,-1848,-467,182,4951,0
1404222698857614837,,1410,,946684960,795300006,'',-13140,6920,-2148,-261,57,4874,0
1404222698858607244,,1411,,946684960,814489960,'',-13180,7512,-2332,-300,-137,4709,0
1404222698859065109,,1412,,946684960,834792971,'',-13104,8364,-2672,-661,-739,4234,0
1404222698911487548,,1413,,946684960,854940056,'',-13244,8708,-2352,-976,-1255,3611,0
1404222698912669990,,1414,,946684960,876194953,'',-13612,8356,-1872,-1095,-1410,3420,0
1404222698913204329,,1415,,946684960,897019982,'',-13836,8340,-1912,-1315,-1298,3463,0
1404222698965794056,,1416,,946684960,915735006,'',-14328,8788,-1704,-1611,-721,3203,0
1404222698966928931,,1417,,946684960,935124039,'',-14240,8768,-1224,-1741,-275,3186,0
1404222698967499068,,1418,,946684960,954095959,'',-16128,9132,-736,-1799,305,3410,0
1404222699019292212,,1419,,946684960,974601030,'',-13388,11268,-1860,-332,3288,3869,0
1404222699020723929,,1420,,946684960,996157050,'',-13032,8848,-2304,-875,2844,3202,0
1404222699072870489,,1421,,946684961,16034960,'',-12964,9628,-2016,-640,2110,2975,0
1404222699073863111,,1422,,946684961,34705996,'',-12632,9328,-1836,-738,1465,2747,0
1404222699074333274,,1423,,946684961,54226040,'',-13372,8464,-2868,-384,1569,2319,0
1404222699126850141,,1424,,946684961,74941039,'',-13084,8792,-2748,-217,1809,2279,0
1404222699127852691,,1425,,946684961,96477985,'',-12832,9632,-2952,-802,1106,2864,0
1404222699128473732,,1426,,946684961,114614009,'',-12556,9048,-2724,-840,626,2850,0
1404222699181468406,,1427,,946684961,134920954,'',-12168,9656,-2776,-590,137,3025,0
1404222699182739902,,1428,,946684961,154932975,'',-11952,9980,-2708,-419,-332,2759,0
1404222699233456333,,1429,,946684961,175784945,'',-12024,9472,-2832,-404,-990,2804,0
1404222699234401596,,1430,,946684961,197633028,'',-12836,10400,-2736,-713,-1460,2807,0
1404222699234870320,,1431,,946684961,216066956,'',-12520,10164,-2184,-963,-1505,2636,0
1404222699286252864,,1432,,946684961,236230015,'',-11988,10024,-1724,-1183,-1734,2875,0
1404222699287338401,,1433,,946684961,255453944,'',-12784,10584,-1648,-1560,-1783,2532,0
1404222699287903773,,1434,,946684961,274332046,'',-12012,11960,-124,-1114,17,2340,0
1404222699337777586,,1435,,946684961,295550942,'',-11476,10704,-856,-612,520,2256,0
1404222699339168238,,1436,,946684961,315114974,'',-12664,11948,-1712,-14,1180,1550,0
1404222699390690948,,1437,,946684961,334527969,'',-11360,10824,-1952,154,497,903,0
1404222699391871295,,1438,,946684961,354303956,'',-12344,11280,-2556,299,-223,283,0
1404222699392490367,,1439,,946684961,374333977,'',-11848,10424,-1956,305,-488,432,0
1404222699443393171,,1440,,946684961,395511031,'',-12032,10932,-2056,81,-366,731,0
1404222699444490745,,1441,,946684961,414834976,'',-11700,10748,-1900,-77,-347,779,0
1404222699445243833,,1442,,946684961,434638023,'',-11940,10704,-1752,-121,-254,920,0
1404222699495915452,,1443,,946684961,454995036,'',-11980,10808,-1928,-186,-260,1179,0
1404222699497306866,,1444,,946684961,475142002,'',-11908,11220,-2036,-297,-358,1044,0
1404222699549094911,,1445,,946684961,496003985,'',-11256,11484,-1796,-274,-328,444,0
1404222699550158275,,1446,,946684961,514031052,'',-11632,11320,-1564,-89,-54,-9,0
1404222699550705980,,1447,,946684961,533252954,'',-11680,11088,-2132,57,31,200,0
1404222699602517459,,1448,,946684961,555037021,'',-11740,10636,-2536,-127,-195,620,0
1404222699603863746,,1449,,946684961,574627041,'',-12164,9856,-2008,-390,-408,851,0
1404222699654562721,,1450,,946684961,595929026,'',-11784,10724,-1420,-362,-447,1444,0
1404222699655545339,,1451,,946684961,615255951,'',-11452,11084,-1496,-325,-194,1714,0
1404222699656079472,,1452,,946684961,634958982,'',-11332,11308,-1916,-316,-171,1859,0
1404222699707189745,,1453,,946684961,655648946,'',-11424,11568,-2032,-397,-247,1712,0
1404222699708415351,,1454,,946684961,675819039,'',-11100,11696,-1916,-329,-254,1428,0
1404222699708985161,,1455,,946684961,696159958,'',-11052,12112,-1884,-249,-254,950,0
1404222699761691207,,1456,,946684961,715883016,'',-11024,12140,-1760,-134,-159,516,0
1404222699762739482,,1457,,946684961,734662055,'',-11156,11820,-2144,-171,-181,464,0
1404222699763257466,,1458,,946684961,754459023,'',-11148,11488,-1956,-273,-300,507,0
1404222699814791878,,1459,,946684961,775174975,'',-11156,11952,-1676,-206,-330,393,0
1404222699816106924,,1460,,946684961,795578002,'',-10876,11412,-1868,-167,-220,554,0
1404222699866267354,,1461,,946684961,815701007,'',-11196,11764,-1940,-233,-183,607,0
1404222699867298307,,1462,,946684961,834728956,'',-10840,11912,-1956,-280,-162,415,0
1404222699867823709,,1463,,946684961,854248046,'',-10968,12080,-1912,-227,-187,221,0
1404222699919558886,,1464,,946684961,875457048,'',-11004,11920,-1796,-257,-173,-39,0
1404222699920864826,,1465,,946684961,896139025,'',-11008,11824,-1964,-411,-189,-259,0
1404222699972433751,,1466,,946684961,916252970,'',-10704,11324,-2100,-609,-311,-208,0
1404222699973428317,,1467,,946684961,934748053,'',-11404,11793,-258,-258,-258,-258,0
1404222699973919592,,1468,,946684961,954331994,'',-10948,11980,-1524,-964,-386,249,0
1404222700025926392,,1469,,946684961,975904941,'',-10384,11364,-1892,-1254,-242,-49,0
1404222700027011938,,1470,,946684961,996587991,'',-12088,12620,-2116,-2015,-258,-258,0
1404222700027529427,,1471,,946684962,16114950,'',-9868,10584,-1784,-2130,-796,388,0
1404222700079575728,,1472,,946684962,35541057,'',-10444,12516,-1676,-2105,-348,309,0
1404222700080944318,,1473,,946684962,55134057,'',-10756,12528,-1632,-2334,-284,-208,0
1404222700134055037,,1474,,946684962,75543045,'',-11772,13388,-1472,-2320,-256,-347,0
1404222700135153358,,1475,,946684962,95530986,'',-9948,11360,-1324,-1151,-204,-926,0
1404222700135693771,,1476,,946684962,115080952,'',-9948,11360,-1324,-1151,-204,-926,0
1404222700185255217,,1477,,946684962,135084986,'',-10628,11492,-500,470,-236,-1486,0
1404222700186282447,,1478,,946684962,155256986,'',-11424,11404,-1252,612,-25,-1075,0
1404222700186795486,,1479,,946684962,175745964,'',-11084,11016,-1700,305,82,-534,0
1404222700239488036,,1480,,946684962,196638941,'',-11296,11960,-1820,13,-276,-362,0
1404222700240680910,,1481,,946684962,216572999,'',-10880,11816,-1536,-161,-426,-243,0
1404222700241197809,,1482,,946684962,234290003,'',-11028,11492,-1356,-81,-288,-82,0
1404222700293694375,,1483,,946684962,254487037,'',-11000,11636,-1456,-77,-188,167,0
1404222700295220773,,1484,,946684962,275079965,'',-10944,11948,-1740,-258,-258,-258,0
1404222700345769498,,1485,,946684962,296004056,'',-10924,12060,-1476,-101,-500,189,0
1404222700346753938,,1486,,946684962,314311981,'',-10824,12064,-1316,-88,-392,-5,0
1404222700347262908,,1487,,946684962,334710001,'',-10944,11988,-1312,-78,-208,-111,0
1404222700400100247,,1488,,946684962,354730010,'',-10936,12028,-1644,-98,-180,-165,0
1404222700402125563,,1489,,946684962,375326037,'',-10796,12128,-1536,-136,-280,-272,0
1404222700453627335,,1490,,946684962,394904017,'',-10928,11880,-1464,-98,-400,-292,0
1404222700454667906,,1491,,946684962,415032982,'',-10880,11944,-1128,-35,-328,-209,0
1404222700455159071,,1492,,946684962,434357047,'',-10912,12036,-1328,14,-291,-226,0
1404222700507375370,,1493,,946684962,454776048,'',-10704,12008,-1460,-62,-277,-267,0
1404222700509717918,,1494,,946684962,474995017,'',-10872,12076,-1380,-76,-282,-281,0
1404222700510230292,,1495,,946684962,493728995,'',-10800,12080,-1344,7,-263,-326,0
1404222700560440360,,1496,,946684962,514554977,'',-10856,12192,-1300,46,-227,-416,0
1404222700561256631,,1497,,946684962,534373044,'',-10628,11964,-1344,28,-205,-454,0
1404222700561644710,,1498,,946684962,554308056,'',-10904,11900,-1680,-39,-262,-435,0
1404222700614293736,,1499,,946684962,575567960,'',-10820,11896,-1512,-31,-361,-401,0
1404222700615558910,,1500,,946684962,595092058,'',-10844,12004,-1296,-28,-254,-328,0
1404222700668895888,,1501,,946684962,615200996,'',-10796,11972,-1504,-51,-241,-348,0
1404222700670293512,,1502,,946684962,634459018,'',-10820,12060,-1544,23,-278,-459,0
1404222700670965844,,1503,,946684962,654793024,'',-10724,12100,-1380,-37,-315,-525,0
1404222700721834431,,1504,,946684962,676877975,'',-10832,12032,-1432,-83,-293,-577,0
1404222700741725547,,1505,,946684962,695698022,'',-10936,11832,-1464,-82,-236,-574,0
1404222700742128709,,1506,,946684962,714663982,'',-10896,11972,-1288,-8,-214,-571,0
1404222700778091448,,1507,,946684962,735326051,'',-10900,11964,-1404,-10,-162,-541,0
1404222700778282648,,1508,,946684962,754176020,'',-10940,12048,-1664,28,-220,-488,0
1404222700830230718,,1509,,946684962,775058031,'',-10812,11752,-1556,33,-286,-441,0
1404222700830387993,,1510,,946684962,794252038,'',-11048,11868,-1492,-70,-308,-304,0
1404222700830731153,,1511,,946684962,814908027,'',-10860,12012,-1436,-82,-293,-323,0
1404222700881520586,,1512,,946684962,835605025,'',-10820,12000,-1528,-81,-243,-383,0
1404222700881670663,,1513,,946684962,854323983,'',-10852,12028,-1476,-27,-252,-389,0
1404222700882007519,,1514,,946684962,875008940,'',-10872,11996,-1388,-87,-267,-390,0
1404222700934896175,,1515,,946684962,895972013,'',-10804,12048,-1576,-113,-318,-398,0
1404222700935304216,,1516,,946684962,915274024,'',-10876,11872,-1256,-36,-314,-411,0
1404222700988675735,,1517,,946684962,935987949,'',-10908,11928,-1460,-10,-271,-411,0
1404222700988828974,,1518,,946684962,954520940,'',-10888,11972,-1564,-35,-268,-393,0
1404222700989190177,,1519,,946684962,974607944,'',-10796,12228,-1564,-35,-268,-393,0
1404222701042227171,,1520,,946684962,995699048,'',-10856,12068,-1468,-36,-299,-516,0
1404222701042391776,,1521,,946684963,15465021,'',-10916,12092,-1336,35,-298,-586,0
1404222701042756495,,1522,,946684963,34826993,'',-10904,11868,-1480,-16,-256,-620,0
1404222701096425646,,1523,,946684963,54378032,'',-10860,11952,-1444,-81,-266,-602,0
1404222701096811423,,1524,,946684963,75260043,'',-10916,11888,-1448,-51,-295,-550,0
1404222701151188368,,1525,,946684963,94871044,'',-10744,11960,-1620,-63,-306,-529,0
1404222701151344956,,1526,,946684963,115404009,'',-10952,11852,-1512,-63,-326,-472,0
1404222701152744791,,1527,,946684963,135223031,'',-10868,11956,-1340,-67,-303,-403,0
1404222701205660955,,1528,,946684963,155395984,'',-10800,11884,-1408,-45,-255,-377,0
1404222701205824472,,1529,,946684963,176349997,'',-10908,11828,-1516,-64,-243,-347,0
1404222701206213693,,1530,,946684963,195160031,'',-10984,11872,-1652,-106,-259,-343,0
1404222701259351550,,1531,,946684963,215291976,'',-10936,11980,-1472,-75,-252,-409,0
1404222701260670296,,1532,,946684963,235471963,'',-10844,11984,-1352,-54,-255,-420,0
1404222701311746040,,1533,,946684963,254858016,'',-11024,11932,-1508,-73,-279,-445,0
1404222701311894687,,1534,,946684963,275454998,'',-10888,12004,-1604,-105,-330,-438,0
1404222701313303035,,1535,,946684963,294309020,'',-10896,12056,-1452,-69,-336,-436,0
1404222701364573743,,1536,,946684963,315672039,'',-10816,12020,-1572,-45,-276,-511,0
1404222701364790834,,1537,,946684963,335415959,'',-10880,11956,-1500,-49,-275,-567,0
1404222701365250849,,1538,,946684963,354722976,'',-10812,11956,-1524,-110,-253,-533,0
1404222701417553519,,1539,,946684963,375627994,'',-10904,11740,-1504,-110,-242,-494,0
1404222701418728390,,1540,,946684963,394194006,'',-10944,11916,-1496,-75,-267,-466,0
1404222701471679382,,1541,,946684963,415935039,'',-10920,11868,-1268,-75,-263,-403,0
1404222701472839264,,1542,,946684963,435698986,'',-10980,11900,-1364,-115,-249,-336,0
1404222701473343441,,1543,,946684963,454395055,'',-10892,11936,-1492,-68,-275,-328,0
1404222701524130779,,1544,,946684963,475790023,'',-10868,11876,-1520,-142,-278,-285,0
1404222701526619039,,1545,,946684963,495107054,'',-10820,11876,-1536,-131,-310,-252,0
1404222701527172542,,1546,,946684963,515104055,'',-10904,12020,-1476,-73,-260,-252,0
1404222701575637426,,1547,,946684963,535419940,'',-10828,12040,-1384,-81,-277,-305,0
1404222701577469034,,1548,,946684963,554718017,'',-10936,11936,-1572,-111,-297,-324,0
1404222701627378823,,1549,,946684963,575780034,'',-10912,11960,-1476,-85,-306,-311,0
1404222701628519769,,1550,,946684963,594401955,'',-10884,12068,-1468,-85,-294,-357,0
1404222701629045779,,1551,,946684963,615174055,'',-10868,11912,-1428,-78,-316,-369,0
1404222701679755911,,1552,,946684963,635918974,'',-10868,11924,-1572,-77,-288,-423,0
1404222701681124698,,1553,,946684963,654854059,'',-10864,12048,-1368,-96,-290,-460,0
1404222701734621711,,1554,,946684963,676887035,'',-10784,12048,-1584,-88,-264,-512,0
1404222701735583002,,1555,,946684963,695201992,'',-10872,11900,-1496,-73,-294,-516,0
1404222701736062390,,1556,,946684963,716490030,'',-10880,11780,-1452,-88,-245,-434,0
1404222701788132209,,1557,,946684963,735983014,'',-10852,12048,-1392,-95,-215,-413,0
1404222701789285249,,1558,,946684963,754641056,'',-10744,11868,-1580,-73,-254,-382,0
1404222701789941826,,1559,,946684963,775037050,'',-11044,11780,-1480,-77,-300,-357,0
1404222701831782739,,1560,,946684963,795130014,'',-10852,11876,-1680,-106,-318,-283,0
1404222701833573729,,1561,,946684963,815510034,'',-10912,11944,-1504,-104,-312,-283,0
1404222701885366935,,1562,,946684963,835819005,'',-10796,11912,-1372,-87,-326,-317,0
1404222701886316238,,1563,,946684963,854758977,'',-10936,11944,-1528,-117,-292,-245,0
1404222701886789911,,1564,,946684963,875419974,'',-10772,11960,-1540,-111,-283,-279,0
1404222701938243281,,1565,,946684963,895048975,'',-10868,12172,-1612,-95,-277,-393,0
1404222701938939434,,1566,,946684963,915096998,'',-10884,11968,-1388,-91,-261,-466,0
1404222701991626458,,1567,,946684963,935217976,'',-10816,11984,-1576,-91,-261,-466,0
1404222701992785511,,1568,,946684963,954529047,'',-10904,11948,-1512,-85,-283,-474,0
1404222701993278958,,1569,,946684963,975414991,'',-10796,11940,-1452,-108,-286,-471,0
1404222702044035323,,1570,,946684963,994871973,'',-11000,11912,-1444,-55,-296,-496,0
1404222702045201279,,1571,,946684964,15197992,'',-10792,12032,-1556,-58,-344,-485,0
1404222702045693398,,1572,,946684964,35650014,'',-10824,11932,-1428,-76,-331,-524,0
1404222702096373184,,1573,,946684964,54466962,'',-10860,11860,-1320,-69,-259,-539,0
1404222702097607421,,1574,,946684964,75145959,'',-11040,11908,-1580,-56,-266,-486,0
1404222702150130069,,1575,,946684964,95020055,'',-10792,11828,-1540,-94,-280,-410,0
1404222702151168610,,1576,,946684964,115759968,'',-10868,11924,-1544,-104,-296,-353,0
1404222702151696321,,1577,,946684964,136069059,'',-10888,11972,-1424,-136,-284,-312,0
1404222702201519377,,1578,,946684964,155192971,'',-10884,12008,-1700,-87,-269,-299,0
1404222702202376130,,1579,,946684964,176844954,'',-10820,11956,-1676,-81,-309,-319,0
1404222702202752390,,1580,,946684964,194738030,'',-10900,11960,-1388,-91,-325,-349,0
1404222702253561227,,1581,,946684964,216598987,'',-10820,11996,-1340,-103,-285,-353,0
1404222702254746457,,1582,,946684964,236052989,'',-10672,11920,-1440,-111,-256,-342,0
1404222702305275247,,1583,,946684964,254927039,'',-10908,11956,-1532,-80,-256,-393,0
1404222702306352567,,1584,,946684964,274575948,'',-10820,12032,-1500,-36,-296,-426,0
1404222702306834197,,1585,,946684964,294267058,'',-10900,11860,-1496,-80,-311,-451,0
1404222702359790423,,1586,,946684964,316213965,'',-10732,11844,-1412,-101,-334,-410,0
1404222702360957142,,1587,,946684964,335695028,'',-10860,11980,-1560,-82,-322,-404,0
1404222702361518894,,1588,,946684964,355010032,'',-10832,12132,-1484,-258,-258,-258,0
1404222702412749747,,1589,,946684964,375017046,'',-10844,12056,-1416,-82,-268,-514,0
1404222702413916758,,1590,,946684964,394232988,'',-10888,11900,-1376,-54,-260,-487,0
1404222702465534984,,1591,,946684964,415820002,'',-10788,11992,-1412,-88,-248,-474,0
1404222702466421189,,1592,,946684964,436082959,'',-10852,12020,-1524,-114,-303,-414,0
1404222702466816880,,1593,,946684964,454391956,'',-10832,11976,-1460,-89,-331,-430,0
1404222702518050666,,1594,,946684964,474902033,'',-10908,11876,-1420,-67,-248,-372,0
1404222702519256721,,1595,,946684964,494552016,'',-10892,11944,-1480,-85,-280,-335,0
1404222702519793778,,1596,,946684964,515849947,'',-10920,11876,-1584,-119,-296,-317,0
1404222702571588586,,1597,,946684964,536147952,'',-10896,12072,-1436,-80,-311,-272,0
1404222702572974088,,1598,,946684964,554734945,'',-10864,11968,-1404,-111,-258,-258,0
1404222702625688418,,1599,,946684964,575186014,'',-10872,11988,-1380,-76,-271,-391,0
1404222702626774283,,1600,,946684964,595026969,'',-10916,11980,-1456,-100,-225,-393,0
1404222702627250518,,1601,,946684964,615625023,'',-10824,11968,-1340,-95,-270,-385,0
1404222702678362068,,1602,,946684964,635285973,'',-10868,12060,-1348,-72,-295,-385,0
1404222702679718937,,1603,,946684964,654850959,'',-10804,12052,-1464,-74,-264,-458,0
1404222702680404871,,1604,,946684964,676409006,'',-10808,12092,-1460,-49,-240,-509,0
1404222702730587358,,1605,,946684964,695551991,'',-10792,11860,-1508,-62,-264,-510,0
1404222702731853744,,1606,,946684964,716843008,'',-10928,11976,-1472,-100,-298,-477,0
1404222702783854328,,1607,,946684964,735671043,'',-10876,11808,-1536,-120,-340,-455,0
1404222702784940781,,1608,,946684964,754555940,'',-10836,11972,-1348,-72,-331,-440,0
1404222702785449661,,1609,,946684964,774536013,'',-10912,11832,-1360,-67,-287,-456,0
1404222702836671466,,1610,,946684964,794896960,'',-10820,11896,-1412,-73,-279,-467,0
1404222702837751178,,1611,,946684964,815969944,'',-10900,11828,-1600,-80,-286,-426,0
1404222702838255096,,1612,,946684964,835188984,'',-10828,11924,-1488,-134,-299,-385,0
1404222702890013300,,1613,,946684964,855746984,'',-10812,11964,-1340,-103,-263,-359,0
1404222702891177408,,1614,,946684964,874688982,'',-10964,12012,-1416,-51,-202,-360,0
1404222702941249945,,1615,,946684964,895455002,'',-10840,11908,-1556,-70,-223,-350,0
1404222702942296684,,1616,,946684964,915858030,'',-10996,11968,-1476,-83,-300,-377,0
1404222702942795376,,1617,,946684964,934788942,'',-10816,12068,-1372,-66,-300,-409,0
1404222702994574050,,1618,,946684964,954772949,'',-10848,11940,-1448,-78,-245,-367,0
1404222702995394606,,1619,,946684964,974545001,'',-10820,12008,-1580,-79,-248,-352,0
1404222702995798846,,1620,,946684964,994856953,'',-10868,12116,-1440,-84,-282,-336,0
1404222703047093120,,1621,,946684965,16384005,'',-10800,12016,-1444,-56,-306,-340,0
1404222703048518519,,1622,,946684965,34371018,'',-10880,11980,-1528,-61,-275,-391,0
1404222703101042993,,1623,,946684965,54695963,'',-10752,11980,-1580,-95,-315,-378,0
1404222703102071057,,1624,,946684965,75191020,'',-10756,11936,-1400,-127,-307,-375,0
1404222703102568028,,1625,,946684965,94601035,'',-10852,12016,-1204,-97,-291,-412,0
1404222703158064730,,1626,,946684965,115877032,'',-10888,11948,-1580,-73,-272,-395,0
1404222703159052184,,1627,,946684965,134274959,'',-10792,11980,-1648,-69,-287,-412,0
1404222703159634065,,1628,,946684965,155372023,'',-10744,12036,-1500,-70,-319,-409,0
1404222703212981282,,1629,,946684965,176630020,'',-10812,11900,-1428,-84,-296,-446,0
1404222703214272218,,1630,,946684965,194636940,'',-10776,11968,-1364,-96,-256,-450,0
1404222703265244097,,1631,,946684965,216807007,'',-11004,12028,-1420,-88,-251,-455,0
1404222703266777075,,1632,,946684965,234925985,'',-10752,11996,-1372,-59,-265,-454,0
1404222703267362286,,1633,,946684965,255046963,'',-10960,11804,-1268,-59,-265,-454,0
1404222703311633326,,1634,,946684965,275078058,'',-10772,11880,-1412,-65,-272,-365,0
1404222703313156519,,1635,,946684965,295248985,'',-10896,11940,-1608,-103,-279,-298,0
1404222703363367493,,1636,,946684965,316092967,'',-10836,11984,-1428,-71,-259,-282,0
1404222703364609195,,1637,,946684965,335281968,'',-10864,11972,-1404,-103,-302,-281,0
1404222703365179246,,1638,,946684965,354722023,'',-10856,11948,-1496,-138,-281,-271,0
1404222703415571358,,1639,,946684965,375398039,'',-10836,12064,-1304,-132,-290,-268,0
1404222703416955132,,1640,,946684965,395342946,'',-10772,12024,-1464,-91,-285,-334,0
1404222703469121099,,1641,,946684965,415619969,'',-10864,12088,-1540,-65,-234,-423,0
1404222703470112476,,1642,,946684965,434486985,'',-10928,12004,-1444,-62,-259,-473,0
1404222703470608096,,1643,,946684965,454797983,'',-10848,11948,-1568,-63,-257,-459,0
1404222703520140982,,1644,,946684965,475368976,'',-10808,12076,-1492,-106,-302,-456,0
1404222703521299530,,1645,,946684965,495265960,'',-10840,12000,-1332,-94,-320,-425,0
1404222703521784204,,1646,,946684965,515831947,'',-10828,11900,-1388,-93,-315,-396,0
1404222703574186645,,1647,,946684965,534942030,'',-10856,12088,-1512,-65,-302,-378,0
1404222703575378396,,1648,,946684965,555052995,'',-10824,11912,-1572,-64,-296,-391,0
1404222703637507543,,1649,,946684965,575219988,'',-10860,12008,-1500,-87,-296,-378,0
1404222703638631955,,1650,,946684965,595764994,'',-10848,11992,-1528,-125,-254,-344,0
1404222703638891760,,1651,,946684965,617037057,'',-10724,12024,-1356,-100,-289,-368,0
1404222703639195238,,1652,,946684965,634719014,'',-10776,11964,-1540,-106,-274,-345,0
1404222703689680864,,1653,,946684965,657731056,'',-10776,12000,-1260,-128,-274,-328,0
1404222703690952541,,1654,,946684965,676473021,'',-10828,12004,-1524,-118,-302,-321,0
1404222703743126586,,1655,,946684965,695049047,'',-10792,12088,-1348,-63,-268,-387,0
1404222703744314169,,1656,,946684965,715744972,'',-10708,12048,-1412,-54,-236,-429,0
1404222703744868478,,1657,,946684965,735043048,'',-10748,11992,-1640,-70,-257,-391,0
1404222703796042240,,1658,,946684965,755517005,'',-10684,12064,-1492,-76,-285,-360,0
1404222703797219775,,1659,,946684965,774927020,'',-10772,12052,-1396,-101,-333,-382,0
1404222703797718523,,1660,,946684965,794774055,'',-10684,12020,-1292,-96,-286,-453,0
1404222703852962874,,1661,,946684965,815384030,'',-10848,11888,-1432,-57,-271,-427,0
1404222703854306774,,1662,,946684965,834471940,'',-10892,11972,-1528,-85,-280,-394,0
1404222703907293789,,1663,,946684965,855798006,'',-10812,12016,-1340,-102,-294,-408,0
1404222703908550044,,1664,,946684965,874665975,'',-10772,12112,-1364,-69,-251,-443,0
1404222703909014179,,1665,,946684965,895346045,'',-10636,12044,-1512,-61,-264,-435,0
1404222703960988773,,1666,,946684965,916031002,'',-10912,12048,-1512,-107,-336,-468,0
1404222703961622468,,1667,,946684965,934896945,'',-10776,12052,-1384,-119,-297,-468,0
1404222703961943644,,1668,,946684965,954978942,'',-10868,12036,-1544,-74,-263,-496,0
1404222704016441490,,1669,,946684965,975139975,'',-10784,12008,-1384,-78,-243,-439,0
1404222704017327653,,1670,,946684965,995169043,'',-10816,12016,-1560,-66,-284,-408,0
1404222704070729645,,1671,,946684966,15336990,'',-10812,12048,-1400,-94,-290,-401,0
1404222704071738892,,1672,,946684966,34415006,'',-10832,11992,-1384,-76,-297,-420,0
1404222704072394706,,1673,,946684966,55078029,'',-10936,12028,-1596,-95,-272,-383,0
1404222704124063067,,1674,,946684966,75353980,'',-10840,12084,-1548,-76,-307,-394,0
1404222704125271644,,1675,,946684966,95144033,'',-10840,12076,-1428,-65,-296,-450,0
1404222704125765024,,1676,,946684966,115218997,'',-10976,12072,-1348,-76,-252,-446,0
1404222704178959877,,1677,,946684966,135018944,'',-10892,11840,-1564,-86,-278,-398,0
1404222704180606667,,1678,,946684966,155686974,'',-10800,12016,-1356,-99,-251,-286,0
1404222704181315531,,1679,,946684966,176202058,'',-10812,12052,-1360,-95,-271,-254,0
1404222704230955770,,1680,,946684966,195930957,'',-10700,12076,-1464,-101,-293,-268,0
1404222704232399411,,1681,,946684966,215878009,'',-10760,12036,-1520,-89,-269,-317,0
1404222704284600069,,1682,,946684966,235556006,'',-10736,12092,-1536,-99,-264,-373,0
1404222704285790463,,1683,,946684966,255056023,'',-10788,12056,-1476,-97,-277,-436,0
1404222704286430670,,1684,,946684966,274610996,'',-10812,11976,-1504,-103,-304,-449,0
1404222704337980688,,1685,,946684966,295503020,'',-10816,12024,-1432,-50,-310,-446,0
1404222704339233624,,1686,,946684966,315179944,'',-10775,-258,-258,-258,-258,-258,0
1404222704339837999,,1687,,946684966,334633946,'',-10764,12048,-1524,-81,-337,-432,0
1404222704391793702,,1688,,946684966,355340957,'',-10804,12160,-1308,-98,-337,-446,0
1404222704392375002,,1689,,946684966,374300003,'',-10644,12004,-1348,-89,-277,-428,0
1404222704445448252,,1690,,946684966,396015048,'',-10752,12032,-1540,-73,-245,-422,0
1404222704446476031,,1691,,946684966,415727019,'',-10612,12008,-1452,-106,-264,-388,0
1404222704446971255,,1692,,946684966,434401988,'',-10792,11980,-1608,-92,-271,-363,0
1404222704498159992,,1693,,946684966,455585002,'',-10768,11924,-1352,-79,-248,-333,0
1404222704499159790,,1694,,946684966,474390029,'',-10832,12128,-1636,-52,-281,-355,0
1404222704499631821,,1695,,946684966,495548009,'',-10688,12072,-1440,-55,-274,-348,0
1404222704551139476,,1696,,946684966,515810966,'',-10896,12008,-1376,-46,-249,-258,0
1404222704552141980,,1697,,946684966,534559011,'',-10648,12104,-1504,-66,-243,-322,0
1404222704604360659,,1698,,946684966,555917024,'',-10688,12152,-1567,-258,-258,-258,0
1404222704605204894,,1699,,946684966,574741959,'',-10684,12064,-1540,-109,-314,-368,0
1404222704605659910,,1700,,946684966,595857977,'',-10720,12120,-1324,-119,-278,-379,0
1404222704656839599,,1701,,946684966,616137981,'',-10772,12044,-1436,-103,-242,-400,0
1404222704658170119,,1702,,946684966,634973049,'',-10700,12084,-1452,-95,-255,-495,0
1404222704719323545,,1703,,946684966,656568050,'',-10832,12048,-1524,-56,-318,-491,0
1404222704720437992,,1704,,946684966,675981044,'',-10764,11976,-1400,-72,-318,-431,0
1404222704720928341,,1705,,946684966,695561051,'',-10832,11964,-1460,-105,-281,-391,0
1404222704772783622,,1706,,946684966,717589020,'',-10756,12032,-1440,-117,-294,-375,0
1404222704773924937,,1707,,946684966,734961032,'',-10820,12060,-1352,-40,-274,-384,0
1404222704774465350,,1708,,946684966,755179047,'',-10644,12076,-1500,-88,-309,-258,0
1404222704826862520,,1709,,946684966,775086998,'',-10764,12064,-1512,-174,-273,-281,0
1404222704827895248,,1710,,946684966,795377969,'',-10812,12112,-1408,-89,-281,-303,0
1404222704828519783,,1711,,946684966,815431952,'',-10856,12112,-1456,-80,-275,-324,0
1404222704880413985,,1712,,946684966,834987044,'',-10772,12124,-1564,-60,-250,-344,0
1404222704881710012,,1713,,946684966,854295015,'',-10820,12188,-1432,-74,-279,-391,0
1404222704934209796,,1714,,946684966,874268054,'',-10772,12052,-1400,-76,-286,-399,0
1404222704935247469,,1715,,946684966,897086024,'',-10672,12108,-1388,-86,-316,-392,0
1404222704935734206,,1716,,946684966,915482997,'',-10872,12112,-1504,-63,-256,-450,0
1404222704987752751,,1717,,946684966,934952974,'',-10796,12044,-1544,-87,-266,-456,0
1404222704988885336,,1718,,946684966,954288959,'',-10836,12040,-1540,-56,-288,-457,0
1404222704989423379,,1719,,946684966,974400997,'',-10736,12048,-1436,-58,-278,-403,0
1404222705040985428,,1720,,946684966,995188951,'',-10860,12100,-1460,-82,-249,-365,0
1404222705042081136,,1721,,946684967,16412019,'',-10704,12060,-1644,-100,-281,-339,0
1404222705093856557,,1722,,946684967,34386992,'',-10772,12132,-1468,-90,-329,-344,0
1404222705094899126,,1723,,946684967,54262995,'',-10628,12208,-1476,-76,-315,-363,0
1404222705095434250,,1724,,946684967,75253963,'',-10792,12096,-1524,-81,-290,-399,0
1404222705148923246,,1725,,946684967,95299005,'',-10716,11984,-1480,-88,-310,-431,0
1404222705150003902,,1726,,946684967,115214943,'',-10764,12172,-1568,-68,-327,-467,0
1404222705150540509,,1727,,946684967,134650945,'',-10824,12180,-1336,-78,-278,-460,0
1404222705201734050,,1728,,946684967,155222058,'',-10760,12088,-1476,-65,-281,-454,0
1404222705203019066,,1729,,946684967,176789999,'',-10800,12084,-1476,-74,-315,-511,0
1404222705254668314,,1730,,946684967,195930957,'',-10520,12064,-1344,-85,-296,-548,0
1404222705255639148,,1731,,946684967,216652989,'',-10804,11960,-1492,-68,-245,-478,0
1404222705256107202,,1732,,946684967,235227942,'',-10768,12044,-1456,-107,-246,-458,0
1404222705306838235,,1733,,946684967,254822015,'',-10788,11976,-1400,-69,-243,-408,0
1404222705307865459,,1734,,946684967,274351000,'',-10748,11976,-1560,-73,-250,-310,0
1404222705308476762,,1735,,946684967,295374989,'',-10728,11932,-1324,-101,-299,-205,0
1404222705361252034,,1736,,946684967,315863966,'',-10676,12160,-1408,-129,-293,-213,0
1404222705362442210,,1737,,946684967,335031986,'',-10696,12220,-1388,-96,-289,-279,0
1404222705414763638,,1738,,946684967,354328989,'',-10684,12132,-1540,-47,-220,-382,0
1404222705415777041,,1739,,946684967,374353051,'',-10688,12236,-1436,-58,-221,-384,0
1404222705416437137,,1740,,946684967,394878983,'',-10788,12168,-1612,-89,-280,-398,0
1404222705470070432,,1741,,946684967,416262984,'',-10604,11892,-1540,-126,-339,-401,0
1404222705471106444,,1742,,946684967,435264945,'',-10904,12136,-1604,-114,-340,-360,0
1404222705471594681,,1743,,946684967,454319953,'',-10772,12156,-1416,-85,-292,-439,0
1404222705523126716,,1744,,946684967,475219011,'',-10816,12116,-1480,-25,-284,-520,0
1404222705524405321,,1745,,946684967,494819045,'',-10744,12084,-1440,16,-261,-536,0
1404222705524967278,,1746,,946684967,515251040,'',-10808,12204,-1468,-27,-238,-532,0
1404222705577824001,,1747,,946684967,535539984,'',-10668,12208,-1696,-84,-309,-477,0
1404222705578540243,,1748,,946684967,554705023,'',-10756,12080,-1428,-134,-327,-441,0
1404222705630761093,,1749,,946684967,575832962,'',-10764,12052,-1344,-57,-263,-461,0
1404222705630992612,,1750,,946684967,595507979,'',-10764,12052,-1344,-57,-263,-461,0
1404222705631291534,,1751,,946684967,615188956,'',-10796,11928,-1488,-81,-273,-407,0
1404222705684041857,,1752,,946684967,635354042,'',-10764,11888,-1412,-94,-300,-324,0
1404222705684468416,,1753,,946684967,654312014,'',-10808,11964,-1484,-86,-301,-226,0
1404222705737363003,,1754,,946684967,675786972,'',-10684,12132,-1580,-79,-341,-205,0
1404222705738288762,,1755,,946684967,695474982,'',-10608,12228,-1360,-81,-324,-327,0
1404222705738838287,,1756,,946684967,716274976,'',-10608,12228,-1360,-81,-324,-327,0
1404222705793247153,,1757,,946684967,735481023,'',-10632,12132,-1600,-93,-276,-393,0
1404222705794279085,,1758,,946684967,754354953,'',-10660,12200,-1548,-98,-255,-392,0
1404222705794845748,,1759,,946684967,774788022,'',-10688,12184,-1400,-77,-312,-483,0
1404222705845841685,,1760,,946684967,795953035,'',-10772,11980,-1412,-108,-260,-491,0
1404222705846896152,,1761,,946684967,815343976,'',-10772,11980,-1412,-108,-260,-491,0
1404222705847367934,,1762,,946684967,834893941,'',-10700,12080,-1456,-56,-272,-481,0
1404222705899357095,,1763,,946684967,854645013,'',-10776,12024,-1608,-67,-271,-445,0
1404222705900650969,,1764,,946684967,875329971,'',-10772,11972,-1552,-107,-276,-367,0
1404222705951781365,,1765,,946684967,896191954,'',-10732,12032,-1484,-99,-295,-339,0
1404222705952881234,,1766,,946684967,915442943,'',-10752,12020,-1416,-109,-263,-280,0
1404222705953376398,,1767,,946684967,935279965,'',-10716,12084,-1472,-122,-222,-229,0
1404222706006411969,,1768,,946684967,955026030,'',-10688,12236,-1420,-137,-288,-172,0
1404222706007457383,,1769,,946684967,975499033,'',-10768,12096,-1372,-158,-386,-166,0
1404222706007958002,,1770,,946684967,995637059,'',-10700,12156,-1296,-123,-317,-217,0
1404222706058303629,,1771,,946684968,15283942,'',-10660,12268,-1292,-50,-275,-353,0
1404222706060454598,,1772,,946684968,35127997,'',-10676,12176,-1220,-90,-268,-555,0
1404222706112149135,,1773,,946684968,54883003,'',-10556,12100,-1400,-73,-260,-620,0
1404222706113857729,,1774,,946684968,75207948,'',-10720,12236,-1552,-68,-233,-612,0
1404222706114472350,,1775,,946684968,95334053,'',-10756,12028,-1516,-44,-274,-605,0
1404222706167890113,,1776,,946684968,115483045,'',-10764,11952,-1392,-52,-301,-520,0
1404222706168769541,,1777,,946684968,134992003,'',-10636,12008,-1360,-52,-271,-389,0
1404222706169168802,,1778,,946684968,154744029,'',-10740,11996,-1608,-65,-263,-309,0
1404222706221927415,,1779,,946684968,176776051,'',-10732,12008,-1436,-104,-281,-260,0
1404222706223236932,,1780,,946684968,195194959,'',-10680,12172,-1508,-81,-273,-217,0
1404222706275886070,,1781,,946684968,217286944,'',-10696,12180,-1488,-91,-274,-202,0
1404222706277305181,,1782,,946684968,235481023,'',-10688,12040,-1400,-113,-326,-292,0
1404222706277923912,,1783,,946684968,254675030,'',-10600,12164,-1412,-116,-319,-358,0
1404222706319946666,,1784,,946684968,275264978,'',-10636,12200,-1500,-61,-293,-442,0
1404222706321574175,,1785,,946684968,295557022,'',-10724,12184,-1388,-53,-269,-540,0
1404222706374094298,,1786,,946684968,315389037,'',-10676,12124,-1548,-20,-283,-591,0
1404222706375117191,,1787,,946684968,335006952,'',-10744,12060,-1492,-82,-293,-545,0
1404222706375739339,,1788,,946684968,353883981,'',-10640,12089,-258,-82,-293,-545,0
1404222706425680476,,1789,,946684968,375782012,'',-10716,12048,-1348,-79,-305,-467,0
1404222706426786101,,1790,,946684968,395828962,'',-10568,12212,-1392,-112,-229,-411,0
1404222706478632164,,1791,,946684968,415169000,'',-10880,12080,-1532,-97,-239,-361,0
1404222706479367943,,1792,,946684968,434978008,'',-10588,8190,-258,-258,-258,-258,0
1404222706479711899,,1793,,946684968,454552054,'',-10680,12212,-1388,-97,-256,-331,0
1404222706530805896,,1794,,946684968,475296974,'',-10584,12036,-1524,-90,-248,-342,0
1404222706531483730,,1795,,946684968,495502948,'',-10672,12160,-1500,-96,-275,-346,0
1404222706531695996,,1796,,946684968,515424013,'',-10652,12228,-1532,-103,-277,-345,0
1404222706583970973,,1797,,946684968,535125017,'',-10668,12200,-1548,-69,-259,-384,0
1404222706585387840,,1798,,946684968,554409980,'',-10716,12208,-1480,-68,-232,-439,0
1404222706636928095,,1799,,946684968,575489044,'',-10616,12136,-1524,-94,-228,-441,0
1404222706637948343,,1800,,946684968,595432043,'',-10708,12008,-1452,-75,-274,-451,0
1404222706638430289,,1801,,946684968,615020036,'',-10708,11996,-1604,-34,-292,-451,0
1404222706689671261,,1802,,946684968,635097026,'',-10836,12064,-1444,-94,-273,-375,0
1404222706690672256,,1803,,946684968,654906034,'',-10608,12092,-1612,-134,-253,-372,0
1404222706691566708,,1804,,946684968,676906943,'',-10720,12200,-1512,-83,-260,-391,0
1404222706743008261,,1805,,946684968,695930004,'',-10624,12236,-1404,-77,-279,-403,0
1404222706744369716,,1806,,946684968,715911030,'',-10644,12188,-1404,-52,-258,-469,0
1404222706795699064,,1807,,946684968,735664010,'',-10680,12116,-1504,-52,-245,-509,0
1404222706796826044,,1808,,946684968,755110025,'',-10740,12008,-1512,-127,-257,-513,0
1404222706797384851,,1809,,946684968,775629997,'',-10616,12032,-1588,-125,-325,-471,0
1404222706849887394,,1810,,946684968,795902967,'',-10724,12120,-1436,-80,-305,-413,0
1404222706850943092,,1811,,946684968,815196990,'',-10712,12124,-1492,-92,-320,-423,0
1404222706851451976,,1812,,946684968,834900975,'',-10624,12132,-1320,-96,-305,-447,0
1404222706902576821,,1813,,946684968,854766964,'',-10680,12060,-1568,-94,-311,-422,0
1404222706903837881,,1814,,946684968,875234007,'',-10684,12116,-1500,-86,-302,-417,0
1404222706956171430,,1815,,946684968,895712018,'',-10704,12024,-1532,-75,-246,-385,0
1404222706957311144,,1816,,946684968,915187954,'',-10600,12012,-1436,-86,-206,-321,0
1404222706957792286,,1817,,946684968,935544967,'',-10756,12028,-1580,-123,-265,-295,0
1404222707008148068,,1818,,946684968,955144047,'',-10748,12156,-1584,-112,-277,-290,0
1404222707009252450,,1819,,946684968,975327014,'',-10612,12188,-1360,-49,-282,-333,0
1404222707009789702,,1820,,946684968,995056033,'',-10628,12192,-1300,-72,-271,-415,0
1404222707061505770,,1821,,946684969,16396999,'',-10640,12228,-1496,-89,-249,-459,0
1404222707062701489,,1822,,946684969,34922003,'',-10672,12236,-1480,-94,-241,-480,0
1404222707115342128,,1823,,946684969,55467963,'',-10580,12116,-1420,-110,-219,-466,0
1404222707116398296,,1824,,946684969,75217008,'',-10632,12260,-1620,-87,-268,-467,0
1404222707116879669,,1825,,946684969,94998955,'',-10624,12176,-1512,-91,-284,-494,0
1404222707166850927,,1826,,946684969,116081953,'',-10736,12084,-1400,-68,-278,-497,0
1404222707167854070,,1827,,946684969,135494947,'',-10660,12036,-1608,-102,-263,-405,0
1404222707168464582,,1828,,946684969,155048966,'',-10728,11988,-1564,-110,-260,-346,0
1404222707219021467,,1829,,946684969,174921035,'',-10612,12160,-1372,-115,-269,-424,0
1404222707220374061,,1830,,946684969,195731997,'',-10672,12164,-1240,-93,-278,-497,0
1404222707272955029,,1831,,946684969,216341972,'',-10668,12160,-1572,-77,-232,-480,0
1404222707274850485,,1832,,946684969,235440015,'',-10748,12148,-1568,-85,-271,-424,0
1404222707275644712,,1833,,946684969,254709959,'',-10668,12256,-1612,-121,-317,-485,0
1404222707324410872,,1834,,946684969,274656057,'',-10584,12232,-1504,-62,-273,-502,0
1404222707325681317,,1835,,946684969,295107960,'',-10684,12056,-1408,-67,-254,-465,0
1404222707376529008,,1836,,946684969,315150976,'',-10676,12096,-1504,-63,-279,-467,0
1404222707377498616,,1837,,946684969,335376977,'',-10652,12012,-1580,-91,-278,-421,0
1404222707378009089,,1838,,946684969,354866981,'',-10636,12168,-1448,-105,-305,-418,0
1404222707440284790,,1839,,946684969,374732017,'',-10744,12124,-1432,-98,-346,-413,0
1404222707440917336,,1840,,946684969,395935058,'',-10644,12044,-1492,-74,-323,-438,0
1404222707441247648,,1841,,946684969,415474057,'',-10720,12092,-1548,-92,-254,-418,0
1404222707492341780,,1842,,946684969,435816049,'',-10684,12076,-1432,-99,-263,-413,0
1404222707493293342,,1843,,946684969,454692006,'',-10800,12104,-1520,-88,-300,-366,0
1404222707493747018,,1844,,946684969,473863005,'',-10560,12104,-1520,-88,-300,-366,0
1404222707545204133,,1845,,946684969,495913982,'',-10728,12020,-1388,-127,-328,-279,0
1404222707546246396,,1846,,946684969,515426039,'',-10604,12200,-1368,-103,-287,-308,0
1404222707546766757,,1847,,946684969,535586953,'',-10632,12244,-1448,-71,-256,-395,0
1404222707598332643,,1848,,946684969,555385947,'',-10648,12185,-258,-258,-258,-258,0
1404222707599529240,,1849,,946684969,574370980,'',-10712,12124,-1536,-49,-234,-493,0
1404222707651265955,,1850,,946684969,595535039,'',-10724,12092,-1612,-82,-273,-504,0
1404222707652335359,,1851,,946684969,615278005,'',-10692,12108,-1488,-124,-313,-476,0
1404222707652816873,,1852,,946684969,635524034,'',-10748,12148,-1484,-103,-355,-419,0
1404222707704426992,,1853,,946684969,655223011,'',-10820,12036,-1392,-89,-323,-433,0
1404222707705619341,,1854,,946684969,674517035,'',-10796,12104,-1396,-69,-306,-431,0
1404222707759233193,,1855,,946684969,696300983,'',-10532,12152,-1468,-59,-323,-452,0
1404222707760399010,,1856,,946684969,715581059,'',-10696,12212,-1416,-67,-289,-475,0
1404222707760899503,,1857,,946684969,735190033,'',-10620,11996,-1508,-65,-249,-423,0
1404222707812413567,,1858,,946684969,755118012,'',-10812,12064,-1516,-91,-256,-398,0
1404222707813451732,,1859,,946684969,774631977,'',-10804,12084,-1516,-125,-268,-348,0
1404222707813971855,,1860,,946684969,796167016,'',-10668,12100,-1372,-107,-274,-311,0
1404222707864659157,,1861,,946684969,815574049,'',-10652,12168,-1484,-57,-253,-291,0
1404222707865666906,,1862,,946684969,835111975,'',-10664,12240,-1524,-40,-251,-303,0
1404222707916391624,,1863,,946684969,855376958,'',-10580,12312,-1576,-119,-281,-326,0
1404222707917383025,,1864,,946684969,874668955,'',-10596,12256,-1392,-112,-307,-348,0
1404222707917872262,,1865,,946684969,895378947,'',-10732,12176,-1496,-92,-283,-402,0
1404222707970294880,,1866,,946684969,915938019,'',-10720,12180,-1400,-80,-316,-410,0
1404222707971321955,,1867,,946684969,935225009,'',-10676,12112,-1352,-68,-291,-403,0
1404222707971846393,,1868,,946684969,954694032,'',-10540,12128,-1324,-93,-260,-412,0
1404222708024619635,,1869,,946684969,974387049,'',-10768,12036,-1496,-85,-252,-397,0
1404222708025956223,,1870,,946684969,995614051,'',-10680,12088,-1456,-109,-252,-367,0
1404222708078949986,,1871,,946684970,14693021,'',-10711,-258,-258,-258,-258,-258,0
1404222708079957433,,1872,,946684970,34983992,'',-10620,12172,-1492,-84,-303,-329,0
1404222708080636164,,1873,,946684970,55227994,'',-10596,12180,-1524,-107,-345,-338,0
1404222708132470472,,1874,,946684970,75266957,'',-10684,12140,-1484,-103,-311,-376,0
1404222708133464183,,1875,,946684970,95280051,'',-10648,12148,-1352,-83,-327,-514,0
1404222708133954998,,1876,,946684970,114439010,'',-10656,12160,-1312,-48,-265,-454,0
1404222708185461368,,1877,,946684970,134827017,'',-10676,12188,-1248,-77,-269,-478,0
1404222708186734723,,1878,,946684970,154852986,'',-10640,12260,-1308,-93,-250,-485,0
1404222708238398662,,1879,,946684970,174707055,'',-10620,12148,-1608,-71,-219,-426,0
1404222708239390882,,1880,,946684970,195860981,'',-10656,12100,-1496,-70,-248,-425,0
1404222708239866880,,1881,,946684970,215075969,'',-10616,12204,-1448,-88,-286,-431,0
1404222708289839794,,1882,,946684970,235576033,'',-10684,12136,-1392,-100,-276,-470,0
1404222708290865156,,1883,,946684970,254855036,'',-10580,12108,-1512,-40,-238,-411,0
1404222708291322515,,1884,,946684970,274595022,'',-10696,12084,-1620,-107,-258,-353,0
1404222708343536020,,1885,,946684970,295837044,'',-10764,12132,-1572,-78,-338,-303,0
1404222708344974698,,1886,,946684970,315055012,'',-10616,12140,-1392,-105,-316,-277,0
1404222708396387855,,1887,,946684970,334699988,'',-10696,12176,-1440,-72,-294,-292,0
1404222708397416123,,1888,,946684970,354714035,'',-10580,12240,-1508,-80,-323,-344,0
1404222708398064784,,1889,,946684970,374907016,'',-10676,12316,-1408,-94,-291,-431,0
1404222708448359856,,1890,,946684970,395995974,'',-10580,12280,-1440,-56,-243,-491,0
1404222708449450264,,1891,,946684970,414821028,'',-10636,12040,-1572,-52,-295,-498,0
1404222708449959957,,1892,,946684970,435389995,'',-10616,12100,-1492,-112,-293,-458,0
1404222708502548251,,1893,,946684970,454820990,'',-10752,12152,-1424,-98,-320,-441,0
1404222708504002236,,1894,,946684970,474233031,'',-10660,12144,-1576,-63,-363,-446,0
1404222708554041255,,1895,,946684970,495686054,'',-10708,12184,-1356,-77,-331,-416,0
1404222708555194567,,1896,,946684970,515066027,'',-10528,12084,-1396,-95,-293,-422,0
1404222708555891960,,1897,,946684970,535155057,'',-10480,12284,-1548,-96,-272,-432,0
1404222708607129414,,1898,,946684970,555817008,'',-10652,12108,-1364,-85,-301,-450,0
1404222708608171648,,1899,,946684970,574516057,'',-10656,12204,-1440,-72,-312,-465,0
1404222708609573974,,1900,,946684970,595721960,'',-10624,12016,-1492,-105,-273,-461,0
1404222708659764919,,1901,,946684970,615839004,'',-10604,12152,-1480,-111,-220,-425,0
1404222708661243154,,1902,,946684970,634598016,'',-10616,12092,-1416,-75,-270,-435,0
1404222708713228664,,1903,,946684970,656887054,'',-10640,12128,-1448,-62,-262,-436,0
1404222708714571516,,1904,,946684970,674872040,'',-10672,12184,-1432,-72,-279,-416,0
1404222708715095830,,1905,,946684970,696513056,'',-10704,12188,-1504,-91,-246,-403,0
1404222708765565449,,1906,,946684970,719349980,'',-10544,12064,-1440,-93,-295,-403,0
1404222708766581878,,1907,,946684970,736562967,'',-10692,12176,-1388,-99,-299,-317,0
1404222708767051404,,1908,,946684970,755660057,'',-10696,12192,-1316,-104,-273,-322,0
1404222708816988715,,1909,,946684970,774647951,'',-10848,12120,-1412,-95,-283,-313,0
1404222708818455920,,1910,,946684970,795287966,'',-10624,12212,-1500,-87,-292,-319,0
1404222708870983492,,1911,,946684970,815783977,'',-10596,12268,-1504,-127,-302,-339,0
1404222708872080332,,1912,,946684970,835157990,'',-10648,12240,-1324,-75,-299,-466,0
1404222708872733574,,1913,,946684970,854709982,'',-10604,12192,-1408,-57,-281,-521,0
1404222708914449905,,1914,,946684970,874842047,'',-10512,12312,-1436,-80,-276,-511,0
1404222708916648254,,1915,,946684970,895753026,'',-10772,12184,-1568,-80,-268,-490,0
1404222708966571690,,1916,,946684970,915513992,'',-10556,12184,-1340,-57,-239,-447,0
1404222708967901689,,1917,,946684970,934903025,'',-10840,12036,-1552,-61,-287,-386,0
1404222708968578261,,1918,,946684970,954615950,'',-10664,12028,-1324,-90,-281,-281,0
1404222709020474288,,1919,,946684970,974964022,'',-10528,12160,-1468,-139,-285,-234,0
1404222709021730592,,1920,,946684970,995928049,'',-10568,12204,-1492,-104,-288,-316,0
1404222709073582474,,1921,,946684971,15414953,'',-10644,12252,-1444,-66,-299,-351,0
1404222709074737049,,1922,,946684971,35024046,'',-10656,12188,-1516,-73,-302,-387,0
1404222709075271248,,1923,,946684971,55220007,'',-10576,12208,-1376,-108,-281,-432,0
1404222709126821554,,1924,,946684971,75023055,'',-10676,12216,-1228,-91,-269,-470,0
1404222709127839456,,1925,,946684971,95455050,'',-10560,12236,-1544,-72,-265,-501,0
1404222709128462557,,1926,,946684971,115260004,'',-10724,12136,-1540,-69,-298,-536,0
1404222709179325324,,1927,,946684971,135149002,'',-10580,12140,-1392,-84,-301,-493,0
1404222709179959981,,1928,,946684971,155431032,'',-10648,12064,-1448,-46,-302,-444,0
1404222709180365445,,1929,,946684971,174518942,'',-10516,12196,-1524,-85,-309,-435,0
1404222709246537165,,1930,,946684971,196326971,'',-10600,12164,-1460,-93,-274,-452,0
1404222709247585673,,1931,,946684971,215487003,'',-10588,12224,-1468,-60,-233,-504,0
1404222709248009207,,1932,,946684971,234766960,'',-10624,12272,-1480,-10,-256,-519,0
1404222709298179151,,1933,,946684971,256135940,'',-10692,11948,-1504,-108,-313,-455,0
1404222709299385857,,1934,,946684971,274747014,'',-10656,12112,-1512,-148,-358,-374,0
1404222709358245526,,1935,,946684971,295750975,'',-10764,12152,-1292,-107,-368,-381,0
1404222709359281457,,1936,,946684971,314900994,'',-10544,12272,-1372,-65,-345,-474,0
1404222709359544311,,1937,,946684971,334825992,'',-10780,12232,-1432,-33,-305,-502,0
1404222709359785698,,1938,,946684971,354550957,'',-10592,12212,-1324,-88,-238,-531,0
1404222709410387754,,1939,,946684971,374658942,'',-10672,12228,-1452,-107,-266,-571,0
1404222709411634439,,1940,,946684971,394155025,'',-10600,12172,-1500,-96,-289,-606,0
1404222709464956148,,1941,,946684971,415637016,'',-10616,12072,-1476,-87,-288,-641,0
1404222709466049754,,1942,,946684971,435049057,'',-10648,12056,-1436,-50,-280,-652,0
1404222709466568530,,1943,,946684971,454625964,'',-10752,12064,-1308,-64,-247,-628,0
1404222709518014511,,1944,,946684971,474872946,'',-10764,12024,-1548,-95,-233,-559,0
1404222709518805237,,1945,,946684971,494863986,'',-10628,12196,-1552,-258,-258,-258,0
1404222709519188325,,1946,,946684971,514886975,'',-10720,12176,-1452,-62,-315,-456,0
1404222709570992539,,1947,,946684971,535197019,'',-10684,12096,-1456,-59,-268,-416,0
1404222709572390172,,1948,,946684971,555134057,'',-10656,12080,-1576,-123,-312,-419,0
1404222709624731088,,1949,,946684971,575346946,'',-10796,12092,-1608,-190,-395,-412,0
1404222709625822036,,1950,,946684971,594702005,'',-10752,12072,-1484,-188,-427,-367,0
1404222709626375744,,1951,,946684971,616327047,'',-10648,12112,-1364,-175,-336,-403,0
1404222709678713950,,1952,,946684971,635712981,'',-10696,12216,-1316,-79,-276,-583,0
1404222709679703640,,1953,,946684971,655123949,'',-10732,12260,-1452,-47,-286,-697,0
1404222709680350602,,1954,,946684971,674968004,'',-10764,12380,-1420,-112,-335,-827,0
1404222709731578346,,1955,,946684971,696015000,'',-10628,12212,-1448,-198,-363,-977,0
1404222709732952355,,1956,,946684971,716410040,'',-10812,12044,-1572,-309,-391,-1045,0
1404222709785176049,,1957,,946684971,736711978,'',-10708,12064,-1360,-451,-392,-1093,0
1404222709786156149,,1958,,946684971,756106972,'',-10732,12008,-1292,-862,-423,-1209,0
1404222709786662248,,1959,,946684971,775619029,'',-10960,11856,-1860,-1350,-601,-1410,0
1404222709837266609,,1960,,946684971,795796990,'',-10828,11916,-1332,-1597,-587,-1138,0
1404222709838296233,,1961,,946684971,816980957,'',-10600,11652,-1164,-1874,-782,-861,0
1404222709838797356,,1962,,946684971,835657000,'',-11208,12372,-1152,-2154,-803,-957,0
1404222709890799656,,1963,,946684971,856436014,'',-10724,11884,-788,-2334,-849,-1320,0
1404222709892051608,,1964,,946684971,874943971,'',-10496,12284,-660,-2265,-608,-1857,0
1404222709944790966,,1965,,946684971,895887017,'',-11116,12896,-560,-2006,-792,-2081,0
1404222709945791225,,1966,,946684971,916262030,'',-11524,12260,-364,-1856,-1556,-2054,0
1404222709946311895,,1967,,946684971,935240030,'',-12680,12516,4,-888,-1340,-2427,0
1404222709997563160,,1968,,946684971,956032991,'',-12132,11560,540,-185,-1624,-2374,0
1404222709998728563,,1969,,946684971,974251031,'',-12192,11624,316,147,-1872,-2679,0
1404222709999443240,,1970,,946684971,994364023,'',-12304,11580,-64,437,-1785,-2711,0
1404222710053185590,,1971,,946684972,16618013,'',-12632,11716,-116,380,-1765,-2524,0
1404222710054484769,,1972,,946684972,34991979,'',-12632,11716,-116,380,-1765,-2524,0
1404222710104448236,,1973,,946684972,56010961,'',-12664,11560,-892,235,-1268,-2241,0
1404222710105626353,,1974,,946684972,75338006,'',-12600,11648,-1064,261,-1031,-2085,0
1404222710106120037,,1975,,946684972,94673991,'',-12268,11700,-1600,141,-961,-1851,0
1404222710159229830,,1976,,946684972,115841984,'',-11900,12156,-1696,18,-1095,-1881,0
1404222710160414319,,1977,,946684972,135429978,'',-11472,12428,-2492,54,-1170,-2018,0
1404222710160921322,,1978,,946684972,155673027,'',-10860,12156,-2736,74,-1133,-2020,0
1404222710212134118,,1979,,946684972,176007986,'',-10416,11836,-2864,-64,-1195,-2016,0
1404222710213578544,,1980,,946684972,196216940,'',-10596,12200,-3292,-364,-1761,-2209,0
1404222710264848365,,1981,,946684972,217793941,'',-10964,12408,-2948,-987,-2081,-2931,0
1404222710266717534,,1982,,946684972,236920952,'',-11312,12136,-2472,-1263,-2312,-3375,0
1404222710267269177,,1983,,946684972,256662011,'',-11688,11588,-1744,-1081,-2092,-3775,0
1404222710317246764,,1984,,946684972,275774955,'',-11988,11036,-1208,-497,-1752,-4115,0
1404222710318242883,,1985,,946684972,294939041,'',-12256,10580,-1136,-55,-1584,-4398,0
1404222710319158446,,1986,,946684972,316225051,'',-12524,10436,-684,141,-1145,-4901,0
1404222710370869991,,1987,,946684972,335381984,'',-12920,10292,-240,283,-767,-5790,0
1404222710372033452,,1988,,946684972,354817032,'',-12844,9872,-152,484,-719,-6413,0
1404222710423691169,,1989,,946684972,374019980,'',-12768,9268,164,741,-685,-6534,0
1404222710424994253,,1990,,946684972,393201947,'',-12772,9104,52,837,-635,-6229,0
1404222710425488151,,1991,,946684972,415177941,'',-12768,8936,-88,723,-805,-5950,0
1404222710476584655,,1992,,946684972,435853004,'',-12512,8608,-452,660,-1059,-5607,0
1404222710477597224,,1993,,946684972,455346941,'',-12276,8576,-468,401,-1508,-5287,0
1404222710478085309,,1994,,946684972,474364042,'',-12432,9276,-144,185,-2325,-5557,0
1404222710530102004,,1995,,946684972,494770050,'',-12340,8944,-388,313,-2874,-6152,0
1404222710531341484,,1996,,946684972,515473008,'',-12376,8856,116,489,-3264,-6585,0
1404222710583411928,,1997,,946684972,535526037,'',-12152,8640,372,614,-3598,-7193,0
1404222710584617105,,1998,,946684972,554908990,'',-12732,8520,652,751,-4157,-7720,0
1404222710585163569,,1999,,946684972,574442982,'',-12592,7820,1112,931,-4444,-7678,0
1404222710636467547,,2000,,946684972,595113992,'',-12816,7204,1360,1177,-4404,-7397,0
1404222710637248801,,2001,,946684972,616055965,'',-12812,7204,1360,1177,-4404,-7397,0
